id,ended,endedLastChangedAt,participantIdentifier,participantIdentifierLastChangedAt,gameID,gameIDLastChangedAt,treatment,treatmentLastChangedAt,treatmentName,treatmentNameLastChangedAt,urlParams,urlParamsLastChangedAt,introDone,introDoneLastChangedAt,participantID,participantIDLastChangedAt,score,scoreLastChangedAt,round1_choices,round1_choicesLastChangedAt,round4_choices,round4_choicesLastChangedAt,round3_choices,round3_choicesLastChangedAt,round2_choices,round2_choicesLastChangedAt,exitStepDone,exitStepDoneLastChangedAt,exitSurvey,exitSurveyLastChangedAt,advertisementQuality,advertisementQualityLastChangedAt,numBuyers,numBuyersLastChangedAt,productionQuality,productionQualityLastChangedAt,salesCount,salesCountLastChangedAt,priceOfProduct,priceOfProductLastChangedAt,productionCost,productionCostLastChangedAt,finalScore,finalScoreLastChangedAt,warrant,warrantLastChangedAt,numShown,numShownLastChangedAt,challenged,challengedLastChangedAt,round1_productionCost,round1_productionCostLastChangedAt,round2_productionQuality,round2_productionQualityLastChangedAt,round4_advertisementQuality,round4_advertisementQualityLastChangedAt,round1_numShown,round1_numShownLastChangedAt,round2_advertisementQuality,round2_advertisementQualityLastChangedAt,round4_productionQuality,round4_productionQualityLastChangedAt,round4_salesCount,round4_salesCountLastChangedAt,round4_finalScore,round4_finalScoreLastChangedAt,round4_warrant,round4_warrantLastChangedAt,round4_productionCost,round4_productionCostLastChangedAt,round3_finalScore,round3_finalScoreLastChangedAt,round2_productionCost,round2_productionCostLastChangedAt,round3_advertisementQuality,round3_advertisementQualityLastChangedAt,round1_finalScore,round1_finalScoreLastChangedAt,round4_challenged,round4_challengedLastChangedAt,round1_advertisementQuality,round1_advertisementQualityLastChangedAt,round4_numBuyers,round4_numBuyersLastChangedAt,round4_priceOfProduct,round4_priceOfProductLastChangedAt,round2_salesCount,round2_salesCountLastChangedAt,round2_warrant,round2_warrantLastChangedAt,round2_numBuyers,round2_numBuyersLastChangedAt,round2_challenged,round2_challengedLastChangedAt,round3_challenged,round3_challengedLastChangedAt,round1_productionQuality,round1_productionQualityLastChangedAt,round1_warrant,round1_warrantLastChangedAt,round3_productionCost,round3_productionCostLastChangedAt,round3_priceOfProduct,round3_priceOfProductLastChangedAt,round3_numShown,round3_numShownLastChangedAt,round2_finalScore,round2_finalScoreLastChangedAt,round2_priceOfProduct,round2_priceOfProductLastChangedAt,round2_numShown,round2_numShownLastChangedAt,round3_numBuyers,round3_numBuyersLastChangedAt,round3_salesCount,round3_salesCountLastChangedAt,round1_priceOfProduct,round1_priceOfProductLastChangedAt,round3_productionQuality,round3_productionQualityLastChangedAt,round1_numBuyers,round1_numBuyersLastChangedAt,round1_challenged,round1_challengedLastChangedAt,round4_numShown,round4_numShownLastChangedAt,round1_salesCount,round1_salesCountLastChangedAt,round3_warrant,round3_warrantLastChangedAt,round4_score,round4_scoreLastChangedAt,round1_score,round1_scoreLastChangedAt,round2_score,round2_scoreLastChangedAt,round3_score,round3_scoreLastChangedAt
01HJA8QXRFD1PH63YH5FEWH15T,game terminated,2023-12-23T13:38:54.622767-05:00,john doe,2023-12-22T21:40:49.935527-05:00,01HJA8Q2DW7RJCJ8F8C4JCP2EK,2023-12-22T21:40:49.942025-05:00,"{""playerCount"":2}",2023-12-22T21:40:49.942025-05:00,Two Players,2023-12-22T21:40:49.942025-05:00,{},2023-12-22T21:40:49.951617-05:00,true,2023-12-23T13:37:57.486105-05:00,01HJA8QXQWMVCKHBXTSA4HJE3H,2023-12-22T21:40:49.935527-05:00,,,,,,,,,,,,,,,,,,,,,,,,,,,,,,,,,,,,,,,,,,,,,,,,,,,,,,,,,,,,,,,,,,,,,,,,,,,,,,,,,,,,,,,,,,,,,,,,,,,,,,,,,,,,,,,,,,,,,,,,,,
01HJBZGWGKYTCA1HVVDE61X30B,game terminated,2023-12-23T13:38:54.622767-05:00,johndoe2,2023-12-23T13:38:10.963231-05:00,01HJA8Q2DW7RJCJ8F8C4JCP2EK,2023-12-23T13:38:10.971529-05:00,"{""playerCount"":2}",2023-12-23T13:38:10.971529-05:00,Two Players,2023-12-23T13:38:10.971529-05:00,{},2023-12-23T13:38:10.980189-05:00,true,2023-12-23T13:38:12.886075-05:00,01HJBZGWFZ5QQWM4Q5054MNB9E,2023-12-23T13:38:10.963231-05:00,,,,,,,,,,,,,,,,,,,,,,,,,,,,,,,,,,,,,,,,,,,,,,,,,,,,,,,,,,,,,,,,,,,,,,,,,,,,,,,,,,,,,,,,,,,,,,,,,,,,,,,,,,,,,,,,,,,,,,,,,,
01HJBZKX1B48D1100NAYF9JK1N,game ended,2023-12-23T13:41:04.962526-05:00,johndoe,2023-12-23T13:39:49.804032-05:00,01HJBZKCHAA5N4F5CQ2DEK9DFK,2023-12-23T13:39:49.807294-05:00,"{""playerCount"":1}",2023-12-23T13:39:49.807294-05:00,Solo,2023-12-23T13:39:49.807294-05:00,"{""participantKey"":""1703356752722""}",2023-12-23T13:39:49.814399-05:00,true,2023-12-23T13:39:52.770495-05:00,01HJBZKX0YDX4M9F497H9H9EJY,2023-12-23T13:39:49.804032-05:00,1486,2023-12-23T13:41:04.933672-05:00,"[""low"",""high"",15,5]",2023-12-23T13:40:21.99726-05:00,"[""high"",""high"",15,9]",2023-12-23T13:41:01.423271-05:00,"[""high"",""low"",10,9]",2023-12-23T13:40:53.763431-05:00,"[""low"",""high"",10,5]",2023-12-23T13:40:39.861882-05:00,,,,,,,,,,,,,,,,,,,,,,,,,,,,,,,,,,,,,,,,,,,,,,,,,,,,,,,,,,,,,,,,,,,,,,,,,,,,,,,,,,,,,,,,,,,,,,,,,,,,,,,,,,,,,,,,
01HJC1AA1CVGNAKQMNZ7HW5BRP,game terminated,2023-12-23T14:10:00.68352-05:00,john1,2023-12-23T14:09:32.588934-05:00,01HJC19KPH3KBDX1R0NEQEK8D3,2023-12-23T14:09:32.593846-05:00,"{""playerCount"":2}",2023-12-23T14:09:32.593846-05:00,Two Players,2023-12-23T14:09:32.593846-05:00,{},2023-12-23T14:09:32.600968-05:00,true,2023-12-23T14:09:35.653579-05:00,01HJC1AA10A3VDGDNX84NDP9DK,2023-12-23T14:09:32.588934-05:00,,,,,,,,,,,,,,,,,,,,,,,,,,,,,,,,,,,,,,,,,,,,,,,,,,,,,,,,,,,,,,,,,,,,,,,,,,,,,,,,,,,,,,,,,,,,,,,,,,,,,,,,,,,,,,,,,,,,,,,,,,
01HJC1AVMZSPE1RKJKTW8WTWVB,game terminated,2023-12-23T14:10:00.68352-05:00,john2,2023-12-23T14:09:50.623879-05:00,01HJC19KPH3KBDX1R0NEQEK8D3,2023-12-23T14:09:50.628022-05:00,"{""playerCount"":2}",2023-12-23T14:09:50.628022-05:00,Two Players,2023-12-23T14:09:50.628022-05:00,{},2023-12-23T14:09:50.636589-05:00,true,2023-12-23T14:09:52.218068-05:00,01HJC1AVME3KFZX0J7MNYD7NAD,2023-12-23T14:09:50.623879-05:00,,,,,,,,,,,,,,,,,,,,,,,,,,,,,,,,,,,,,,,,,,,,,,,,,,,,,,,,,,,,,,,,,,,,,,,,,,,,,,,,,,,,,,,,,,,,,,,,,,,,,,,,,,,,,,,,,,,,,,,,,,
01HJC1BYY9VS70X4SK6T547ENC,game ended,2023-12-23T14:12:28.972249-05:00,john,2023-12-23T14:10:26.761213-05:00,01HJC1BGQHTKWM50GRNSZJZ6GE,2023-12-23T14:10:26.76591-05:00,"{""playerCount"":1}",2023-12-23T14:10:26.76591-05:00,Solo,2023-12-23T14:10:26.76591-05:00,"{""participantKey"":""1703358618619""}",2023-12-23T14:10:26.775677-05:00,true,2023-12-23T14:10:27.816902-05:00,01HJC1BYXSB7X5E7X1N8550VVK,2023-12-23T14:10:26.761213-05:00,1225,2023-12-23T14:12:28.942006-05:00,"[""low"",""low"",10,5]",2023-12-23T14:10:45.497247-05:00,"[""low"",""high"",15,5]",2023-12-23T14:12:23.34675-05:00,"[""low"",""high"",10,5]",2023-12-23T14:12:05.277325-05:00,"[""low"",""low"",15,5]",2023-12-23T14:11:40.798665-05:00,,,,,,,,,,,,,,,,,,,,,,,,,,,,,,,,,,,,,,,,,,,,,,,,,,,,,,,,,,,,,,,,,,,,,,,,,,,,,,,,,,,,,,,,,,,,,,,,,,,,,,,,,,,,,,,,
01HJC1G6B0X9BYH2HP5SW3ZRFD,game ended,2023-12-23T14:14:20.796745-05:00,a,2023-12-23T14:12:45.408527-05:00,01HJC1FT2E88XCBDBKE20YZ56B,2023-12-23T14:12:45.412148-05:00,"{""playerCount"":1}",2023-12-23T14:12:45.412148-05:00,Solo,2023-12-23T14:12:45.412148-05:00,{},2023-12-23T14:12:45.423506-05:00,true,2023-12-23T14:12:47.491867-05:00,01HJC1G6AH6B7V8JV6Z15XJSRN,2023-12-23T14:12:45.408527-05:00,619,2023-12-23T14:14:20.767857-05:00,"[""high"",""low"",10,9]",2023-12-23T14:13:22.431271-05:00,"[""high"",""high"",15,9]",2023-12-23T14:14:06.865225-05:00,"[""high"",""high"",10,9]",2023-12-23T14:13:54.607937-05:00,"[""high"",""low"",15,9]",2023-12-23T14:13:38.019814-05:00,,,,,,,,,,,,,,,,,,,,,,,,,,,,,,,,,,,,,,,,,,,,,,,,,,,,,,,,,,,,,,,,,,,,,,,,,,,,,,,,,,,,,,,,,,,,,,,,,,,,,,,,,,,,,,,,
01HJC32A7SDCR3AR9VJ4F6ERZC,game terminated,2023-12-23T14:40:59.129857-05:00,user1,2023-12-23T14:40:07.801124-05:00,01HJC31X0SRH4PZ8DESHJ66DTM,2023-12-23T14:40:07.805614-05:00,"{""playerCount"":2}",2023-12-23T14:40:07.805614-05:00,Two Players,2023-12-23T14:40:07.805614-05:00,{},2023-12-23T14:40:07.818684-05:00,true,2023-12-23T14:40:16.610422-05:00,01HJC32A7CMAKN4P6TYFA1D03Y,2023-12-23T14:40:07.801124-05:00,,,,,,,,,,,,,,,,,,,,,,,,,,,,,,,,,,,,,,,,,,,,,,,,,,,,,,,,,,,,,,,,,,,,,,,,,,,,,,,,,,,,,,,,,,,,,,,,,,,,,,,,,,,,,,,,,,,,,,,,,,
01HJC32GSNEM8HZVF5PEBR3CJ3,game terminated,2023-12-23T14:40:59.129857-05:00,user2,2023-12-23T14:40:14.517064-05:00,01HJC31X0SRH4PZ8DESHJ66DTM,2023-12-23T14:40:14.52121-05:00,"{""playerCount"":2}",2023-12-23T14:40:14.52121-05:00,Two Players,2023-12-23T14:40:14.52121-05:00,"{""participantKey"":""1703360410662""}",2023-12-23T14:40:14.527905-05:00,true,2023-12-23T14:40:17.968265-05:00,01HJC32GS9BEP3R5CKVV9F8ED3,2023-12-23T14:40:14.517064-05:00,,,,,,,,,,,,,,,,,,,,,,,,,,,,,,,,,,,,,,,,,,,,,,,,,,,,,,,,,,,,,,,,,,,,,,,,,,,,,,,,,,,,,,,,,,,,,,,,,,,,,,,,,,,,,,,,,,,,,,,,,,
01HJC34M3AC5W111336A2VXF59,game terminated,2023-12-23T14:42:42.458538-05:00,newuser,2023-12-23T14:41:23.434461-05:00,01HJC341NPY8P2ZSKMRTKV8WDS,2023-12-23T14:41:23.439944-05:00,"{""playerCount"":2}",2023-12-23T14:41:23.439944-05:00,Two Players,2023-12-23T14:41:23.439944-05:00,{},2023-12-23T14:41:23.445284-05:00,true,2023-12-23T14:41:30.094569-05:00,01HJC34M33YJ45H5T07FZJYHKW,2023-12-23T14:41:23.434461-05:00,,,,,,,,,,,,,,,,,,,,,,,,,,,,,,,,,,,,,,,,,,,,,,,,,,,,,,,,,,,,,,,,,,,,,,,,,,,,,,,,,,,,,,,,,,,,,,,,,,,,,,,,,,,,,,,,,,,,,,,,,,
01HJC35DJWP4FQ39N72E2J15BE,game terminated,2023-12-23T14:42:42.458538-05:00,anotheruser,2023-12-23T14:41:49.5323-05:00,01HJC341NPY8P2ZSKMRTKV8WDS,2023-12-23T14:41:49.536219-05:00,"{""playerCount"":2}",2023-12-23T14:41:49.536219-05:00,Two Players,2023-12-23T14:41:49.536219-05:00,"{""participantKey"":""1703360507023""}",2023-12-23T14:41:49.543016-05:00,true,2023-12-23T14:41:51.676518-05:00,01HJC35DJK6N7QX4Y8KADN9P8E,2023-12-23T14:41:49.5323-05:00,,,,,,,,,,,,,,,,,,,,,,,,,,,,,,,,,,,,,,,,,,,,,,,,,,,,,,,,,,,,,,,,,,,,,,,,,,,,,,,,,,,,,,,,,,,,,,,,,,,,,,,,,,,,,,,,,,,,,,,,,,
01HJC37F4M4P6RBK7YCGJQ4TBZ,game terminated,2023-12-23T14:43:40.998138-05:00,abc123,2023-12-23T14:42:56.660138-05:00,01HJC372CG0H78ARGMA8R9AC11,2023-12-23T14:42:56.665454-05:00,"{""playerCount"":2}",2023-12-23T14:42:56.665454-05:00,Two Players,2023-12-23T14:42:56.665454-05:00,{},2023-12-23T14:42:56.675099-05:00,true,2023-12-23T14:43:01.235592-05:00,01HJC37F49V73A585FSC8XJWY8,2023-12-23T14:42:56.660138-05:00,,,,,,,,,,,true,2023-12-23T14:43:57.870189-05:00,"{""age"":"""",""gender"":"""",""advertise"":"""",""feedback"":"""",""education"":""""}",2023-12-23T14:43:57.869421-05:00,,,,,,,,,,,,,,,,,,,,,,,,,,,,,,,,,,,,,,,,,,,,,,,,,,,,,,,,,,,,,,,,,,,,,,,,,,,,,,,,,,,,,,,,,,,,,,,,,,,,,,,,,,,,
01HJC37HENWY2N5DMXD934F51F,game terminated,2023-12-23T14:43:40.998138-05:00,abc456,2023-12-23T14:42:59.030062-05:00,01HJC372CG0H78ARGMA8R9AC11,2023-12-23T14:42:59.03479-05:00,"{""playerCount"":2}",2023-12-23T14:42:59.03479-05:00,Two Players,2023-12-23T14:42:59.03479-05:00,"{""participantKey"":""1703360507023""}",2023-12-23T14:42:59.043814-05:00,true,2023-12-23T14:43:02.786422-05:00,01HJC37HE893BC8B28A4KVEB7P,2023-12-23T14:42:59.030062-05:00,,,,,,,,,,,,,,,,,,,,,,,,,,,,,,,,,,,,,,,,,,,,,,,,,,,,,,,,,,,,,,,,,,,,,,,,,,,,,,,,,,,,,,,,,,,,,,,,,,,,,,,,,,,,,,,,,,,,,,,,,,
01HJC39HR24CE3P1BY83DB8S6P,game terminated,2023-12-23T14:56:41.030841-05:00,asdf,2023-12-23T14:44:04.866744-05:00,01HJC38Y8AQ4E6NF1EGTPM26CN,2023-12-23T14:44:04.870573-05:00,"{""playerCount"":2}",2023-12-23T14:44:04.870573-05:00,Two Players,2023-12-23T14:44:04.870573-05:00,{},2023-12-23T14:44:04.877861-05:00,true,2023-12-23T14:49:16.551725-05:00,01HJC39HQMJXKDHFZQ8MQJY832,2023-12-23T14:44:04.866744-05:00,,,,,,,,,,,,,,,,,,,,,,,,,,,,,,,,,,,,,,,,,,,,,,,,,,,,,,,,,,,,,,,,,,,,,,,,,,,,,,,,,,,,,,,,,,,,,,,,,,,,,,,,,,,,,,,,,,,,,,,,,,
01HJC39W92BYQXPQ688W3SS2NW,game terminated,2023-12-23T14:56:41.030841-05:00,asdf2,2023-12-23T14:44:15.651036-05:00,01HJC38Y8AQ4E6NF1EGTPM26CN,2023-12-23T14:44:15.654953-05:00,"{""playerCount"":2}",2023-12-23T14:44:15.654953-05:00,Two Players,2023-12-23T14:44:15.654953-05:00,"{""participantKey"":""1703360651942""}",2023-12-23T14:44:15.661857-05:00,true,2023-12-23T14:49:13.657665-05:00,01HJC39W8N1NQDK1ECB7DTC6SH,2023-12-23T14:44:15.651036-05:00,,,,,,,,,,,,,,,,,,,,,,,,,,,,,,,,,,,,,,,,,,,,,,,,,,,,,,,,,,,,,,,,,,,,,,,,,,,,,,,,,,,,,,,,,,,,,,,,,,,,,,,,,,,,,,,,,,,,,,,,,,
01HJC412706YK15FA1SCMF04N2,game ended,2023-12-23T15:56:17.231761-05:00,doe1,2023-12-23T14:56:55.392271-05:00,01HJC40N5T62QMMRK7FD6Q6C8R,2023-12-23T14:56:55.397147-05:00,"{""playerCount"":2}",2023-12-23T14:56:55.397147-05:00,Two Players,2023-12-23T14:56:55.397147-05:00,"{""participantKey"":""1703360651942""}",2023-12-23T14:56:55.403218-05:00,true,2023-12-23T14:57:04.071128-05:00,01HJC4126P708DRCVPH591P67E,2023-12-23T14:56:55.392271-05:00,295,2023-12-23T15:00:55.225518-05:00,"[""low"",""low"",10,5]",2023-12-23T14:59:57.058571-05:00,,,"[""low"",""high"",15,5]",2023-12-23T15:47:27.527206-05:00,"[""low"",""high"",10,5]",2023-12-23T15:00:37.124457-05:00,,,,,,,,,,,,,,,,,,,,,,,,,,,,,,,,,,,,,,,,,,,,,,,,,,,,,,,,,,,,,,,,,,,,,,,,,,,,,,,,,,,,,,,,,,,,,,,,,,,,,,,,,,,,,,,,
01HJC4178J5AFHGBGC10SHKS66,game ended,2023-12-23T15:56:17.231761-05:00,doe2,2023-12-23T14:57:00.562703-05:00,01HJC40N5T62QMMRK7FD6Q6C8R,2023-12-23T14:57:00.56922-05:00,"{""playerCount"":2}",2023-12-23T14:57:00.56922-05:00,Two Players,2023-12-23T14:57:00.56922-05:00,"{""participantKey"":""1703361417881""}",2023-12-23T14:57:00.575896-05:00,true,2023-12-23T14:57:02.346604-05:00,01HJC41783FQKW0YJFV6X5BTQB,2023-12-23T14:57:00.562703-05:00,670,2023-12-23T15:00:56.294628-05:00,"[""low"",""high"",15,5]",2023-12-23T14:59:52.70503-05:00,,,"[""high"",""low"",15,9]",2023-12-23T15:47:37.001445-05:00,"[""low"",""high"",15,5]",2023-12-23T15:00:44.969472-05:00,,,,,,,,,,,,,,,,,,,,,,,,,,,,,,,,,,,,,,,,,,,,,,,,,,,,,,,,,,,,,,,,,,,,,,,,,,,,,,,,,,,,,,,,,,,,,,,,,,,,,,,,,,,,,,,,
01HJEHD15H3D73EEXKG6KKY5MR,game terminated,2023-12-24T13:38:55.648362-05:00,testuser1,2023-12-24T13:29:07.889276-05:00,01HJEHC95NA50VZBFKZGEGVXEY,2023-12-24T13:29:07.896022-05:00,"{""playerCount"":2}",2023-12-24T13:29:07.896022-05:00,Two Players,2023-12-24T13:29:07.896022-05:00,{},2023-12-24T13:29:07.919896-05:00,true,2023-12-24T13:29:12.352588-05:00,01HJEHD150P8MV1SD0RSH1QN0G,2023-12-24T13:29:07.889276-05:00,504,2023-12-24T13:34:37.19624-05:00,"[""high"",""low"",15,9]",2023-12-24T13:32:36.728098-05:00,,,,,,,,,,,,,,,,,,,,,,,,,,,,,,,,,,,,,,,,,,,,,,,,,,,,,,,,,,,,,,,,,,,,,,,,,,,,,,,,,,,,,,,,,,,,,,,,,,,,,,,,,,,,,,,,,,,,,,
01HJEHD3TNCX3BYZES9GTM1KV7,game terminated,2023-12-24T13:38:55.648362-05:00,testuser2,2023-12-24T13:29:10.613176-05:00,01HJEHC95NA50VZBFKZGEGVXEY,2023-12-24T13:29:10.619894-05:00,"{""playerCount"":2}",2023-12-24T13:29:10.619894-05:00,Two Players,2023-12-24T13:29:10.619894-05:00,"{""participantKey"":""1703442529002""}",2023-12-24T13:29:10.627005-05:00,true,2023-12-24T13:29:11.309118-05:00,01HJEHD3T85G80GXCXDZ1VC2NS,2023-12-24T13:29:10.613176-05:00,57,2023-12-24T13:34:40.593942-05:00,"[""high"",""low"",10,9]",2023-12-24T13:32:45.054622-05:00,,,,,,,,,,,,,,,,,,,,,,,,,,,,,,,,,,,,,,,,,,,,,,,,,,,,,,,,,,,,,,,,,,,,,,,,,,,,,,,,,,,,,,,,,,,,,,,,,,,,,,,,,,,,,,,,,,,,,,
01HJEJBR0A1AAB343Y5P7ZWBZB,game terminated,2023-12-24T14:12:07.509672-05:00,abc1,2023-12-24T13:45:54.314196-05:00,01HJEJBGNF6NXKVER71QXDTQDD,2023-12-24T13:45:54.320577-05:00,"{""playerCount"":2}",2023-12-24T13:45:54.320577-05:00,Two Players,2023-12-24T13:45:54.320577-05:00,"{""participantKey"":""1703442529002""}",2023-12-24T13:45:54.336362-05:00,true,2023-12-24T13:45:55.4261-05:00,01HJEJBQZTSJNM4PBMG8VVNHCV,2023-12-24T13:45:54.314196-05:00,,,,,,,,,,,,,,,,,,,,,,,,,,,,,,,,,,,,,,,,,,,,,,,,,,,,,,,,,,,,,,,,,,,,,,,,,,,,,,,,,,,,,,,,,,,,,,,,,,,,,,,,,,,,,,,,,,,,,,,,,,
01HJEJBZYSNHS9JMX9SMMZBPQJ,game terminated,2023-12-24T14:12:07.509672-05:00,abc2,2023-12-24T13:46:02.457669-05:00,01HJEJBGNF6NXKVER71QXDTQDD,2023-12-24T13:46:02.462857-05:00,"{""playerCount"":2}",2023-12-24T13:46:02.462857-05:00,Two Players,2023-12-24T13:46:02.462857-05:00,{},2023-12-24T13:46:02.471547-05:00,true,2023-12-24T13:46:03.711293-05:00,01HJEJBZYB3R1M3G0S6KBYSZFR,2023-12-24T13:46:02.457669-05:00,,,,,,,,,,,,,,,,,,,,,,,,,,,,,,,,,,,,,,,,,,,,,,,,,,,,,,,,,,,,,,,,,,,,,,,,,,,,,,,,,,,,,,,,,,,,,,,,,,,,,,,,,,,,,,,,,,,,,,,,,,
01HJEKWY5WN9HZVE9FPMPNS9R4,game ended,2023-12-24T14:17:41.897835-05:00,a1,2023-12-24T14:12:46.26856-05:00,01HJEKW76AB9B76W4H8XJ7VM2A,2023-12-24T14:12:46.274566-05:00,"{""playerCount"":2}",2023-12-24T14:12:46.274566-05:00,Two Players,2023-12-24T14:12:46.274566-05:00,{},2023-12-24T14:12:46.283963-05:00,true,2023-12-24T14:12:54.526795-05:00,01HJEKWY5EF67K819MR4DK7MFJ,2023-12-24T14:12:46.26856-05:00,1325,2023-12-24T14:17:41.853007-05:00,"[""low"",""low"",10,5]",2023-12-24T14:13:00.133615-05:00,"[""low"",""high"",10,5]",2023-12-24T14:16:16.031395-05:00,"[""high"",""low"",15,9]",2023-12-24T14:15:03.827519-05:00,"[""high"",""low"",15,9]",2023-12-24T14:14:06.673887-05:00,,,,,,,,,,,,,,,,,,,,,,,,,,,,,,,,,,,,,,,,,,,,,,,,,,,,,,,,,,,,,,,,,,,,,,,,,,,,,,,,,,,,,,,,,,,,,,,,,,,,,,,,,,,,,,,,
01HJEKX44GAN8C1BQFC1XZEJ8W,game ended,2023-12-24T14:17:41.897835-05:00,a2,2023-12-24T14:12:52.3686-05:00,01HJEKW76AB9B76W4H8XJ7VM2A,2023-12-24T14:12:52.374836-05:00,"{""playerCount"":2}",2023-12-24T14:12:52.374836-05:00,Two Players,2023-12-24T14:12:52.374836-05:00,"{""participantKey"":""1703442529002""}",2023-12-24T14:12:52.383957-05:00,true,2023-12-24T14:12:52.825076-05:00,01HJEKX4440Y6C4D2VQ1G7Q7YD,2023-12-24T14:12:52.3686-05:00,1336,2023-12-24T14:17:38.806786-05:00,"[""low"",""high"",15,5]",2023-12-24T14:13:13.43398-05:00,"[""high"",""low"",15,9]",2023-12-24T14:16:24.01998-05:00,"[""low"",""high"",10,5]",2023-12-24T14:15:10.931372-05:00,"[""low"",""high"",10,5]",2023-12-24T14:14:15.261112-05:00,,,,,,,,,,,,,,,,,,,,,,,,,,,,,,,,,,,,,,,,,,,,,,,,,,,,,,,,,,,,,,,,,,,,,,,,,,,,,,,,,,,,,,,,,,,,,,,,,,,,,,,,,,,,,,,,
01HJEM6D18CPPDKEC0Z97NH497,game ended,2023-12-24T14:21:18.897915-05:00,asdfa,2023-12-24T14:17:56.392572-05:00,01HJEM67HKFPPCJBVPPYX0QGEW,2023-12-24T14:17:56.399621-05:00,"{""playerCount"":2}",2023-12-24T14:17:56.399621-05:00,Two Players,2023-12-24T14:17:56.399621-05:00,{},2023-12-24T14:17:56.407941-05:00,true,2023-12-24T14:17:58.052078-05:00,01HJEM6D0S9KZJE00FANERABRT,2023-12-24T14:17:56.392572-05:00,1120,2023-12-24T14:21:16.624404-05:00,"[""low"",""high"",15,5]",2023-12-24T14:18:11.095481-05:00,"[""low"",""high"",10,5]",2023-12-24T14:20:40.373519-05:00,"[""low"",""high"",15,5]",2023-12-24T14:20:12.927345-05:00,"[""low"",""high"",10,5]",2023-12-24T14:19:07.735226-05:00,,,,,,,,,,,,,,,,,,,,,,,,,,,,,,,,,,,,,,,,,,,,,,,,,,,,,,,,,,,,,,,,,,,,,,,,,,,,,,,,,,,,,,,,,,,,,,,,,,,,,,,,,,,,,,,,
01HJEM6JMR41ZST84SY4RYGYSD,game ended,2023-12-24T14:21:18.897915-05:00,aefaw,2023-12-24T14:18:02.136667-05:00,01HJEM67HKFPPCJBVPPYX0QGEW,2023-12-24T14:18:02.14361-05:00,"{""playerCount"":2}",2023-12-24T14:18:02.14361-05:00,Two Players,2023-12-24T14:18:02.14361-05:00,"{""participantKey"":""1703442529002""}",2023-12-24T14:18:02.153034-05:00,true,2023-12-24T14:18:03.261797-05:00,01HJEM6JMDJTXEE7QYHG7GFA0D,2023-12-24T14:18:02.136667-05:00,969,2023-12-24T14:21:18.853513-05:00,"[""low"",""high"",15,5]",2023-12-24T14:18:18.78467-05:00,"[""high"",""low"",10,9]",2023-12-24T14:20:47.333344-05:00,"[""low"",""high"",10,5]",2023-12-24T14:20:18.880244-05:00,"[""low"",""low"",10,5]",2023-12-24T14:19:10.118575-05:00,,,,,,,,,,,,,,,,,,,,,,,,,,,,,,,,,,,,,,,,,,,,,,,,,,,,,,,,,,,,,,,,,,,,,,,,,,,,,,,,,,,,,,,,,,,,,,,,,,,,,,,,,,,,,,,,
01HJEMCXJ1KN2Y5SHK7WYY7NJT,game ended,2023-12-24T14:31:10.884238-05:00,adfsads,2023-12-24T14:21:29.921637-05:00,01HJEMCSQF7VWRR5J12BNPZ4XZ,2023-12-24T14:21:29.930046-05:00,"{""playerCount"":2}",2023-12-24T14:21:29.930046-05:00,Two Players,2023-12-24T14:21:29.930046-05:00,{},2023-12-24T14:21:29.939127-05:00,true,2023-12-24T14:21:35.431915-05:00,01HJEMCXHP4VYCZ65B6XN8CFRA,2023-12-24T14:21:29.921637-05:00,,2023-12-24T14:31:10.854536-05:00,"[""low"",""low"",10,5]",2023-12-24T14:21:42.201204-05:00,"[""high"",""low"",10,9]",2023-12-24T14:28:53.457688-05:00,"[""high"",""high"",10,9]",2023-12-24T14:23:13.941498-05:00,"[""high"",""high"",15,9]",2023-12-24T14:22:37.080862-05:00,,,,,,,,,,,,,,,,,,,,,,,,,,,,,,,,,,,,,,,,,,,,,,,,,,,,,,,,,,,,,,,,,,,,,,,,,,,,,,,,,,,,,,,,,,,,,,,,,,,,,,,,,,,,,,,,
01HJEMD0XZRW8YN1WSY62Y16M6,game ended,2023-12-24T14:31:10.884238-05:00,adsfads,2023-12-24T14:21:33.375094-05:00,01HJEMCSQF7VWRR5J12BNPZ4XZ,2023-12-24T14:21:33.379992-05:00,"{""playerCount"":2}",2023-12-24T14:21:33.379992-05:00,Two Players,2023-12-24T14:21:33.379992-05:00,"{""participantKey"":""1703442529002""}",2023-12-24T14:21:33.387689-05:00,true,2023-12-24T14:21:36.62739-05:00,01HJEMD0XNM526K70FWR6V0MWH,2023-12-24T14:21:33.375094-05:00,,2023-12-24T14:31:08.608595-05:00,"[""high"",""high"",15,9]",2023-12-24T14:21:49.857498-05:00,"[""low"",""high"",15,5]",2023-12-24T14:28:44.159045-05:00,"[""high"",""low"",10,9]",2023-12-24T14:23:21.295312-05:00,"[""low"",""low"",10,5]",2023-12-24T14:22:46.376977-05:00,,,,,,,,,,,,,,,,,,,,,,,,,,,,,,,,,,,,,,,,,,,,,,,,,,,,,,,,,,,,,,,,,,,,,,,,,,,,,,,,,,,,,,,,,,,,,,,,,,,,,,,,,,,,,,,,
01HJEN02XVSBMCCV6CD1ZGVW77,game ended,2023-12-24T18:05:27.985004-05:00,ftgh,2023-12-24T14:31:58.011828-05:00,01HJEMZRAA0CFAVDQQMG340SGH,2023-12-24T14:31:58.017076-05:00,"{""playerCount"":2}",2023-12-24T14:31:58.017076-05:00,Two Players,2023-12-24T14:31:58.017076-05:00,{},2023-12-24T14:31:58.022454-05:00,true,2023-12-24T14:32:04.277299-05:00,01HJEN02XHYZJRSM2R9Z08MREA,2023-12-24T14:31:58.011828-05:00,,2023-12-24T18:05:27.934121-05:00,"[""low"",""high"",15,5]",2023-12-24T14:32:09.505914-05:00,"[""low"",""high"",15,5]",2023-12-24T18:04:45.323446-05:00,"[""low"",""high"",15,5]",2023-12-24T18:03:15.195163-05:00,"[""low"",""high"",15,5]",2023-12-24T14:34:05.891943-05:00,,,,,,,,,,,,,,,,,,,,,,,,,,,,,,,,,,,,,,,,,,,,,,,,,,,,,,,,,,,,,,,,,,,,,,,,,,,,,,,,,,,,,,,,,,,,,,,,,,,,,,,,,,,,,,,,
01HJEN06HAKGA76R65RK2G9GGH,game ended,2023-12-24T18:05:27.985004-05:00,xgth,2023-12-24T14:32:01.70668-05:00,01HJEMZRAA0CFAVDQQMG340SGH,2023-12-24T14:32:01.709099-05:00,"{""playerCount"":2}",2023-12-24T14:32:01.709099-05:00,Two Players,2023-12-24T14:32:01.709099-05:00,"{""participantKey"":""1703442529002""}",2023-12-24T14:32:01.71342-05:00,true,2023-12-24T14:32:02.969416-05:00,01HJEN06H3R2KVXGSJKWGAGDRV,2023-12-24T14:32:01.70668-05:00,,2023-12-24T18:05:26.230574-05:00,"[""high"",""low"",10,9]",2023-12-24T14:32:16.267432-05:00,"[""high"",""low"",10,9]",2023-12-24T18:04:53.705904-05:00,"[""low"",""high"",15,5]",2023-12-24T18:03:23.199845-05:00,"[""high"",""low"",10,9]",2023-12-24T14:34:12.890734-05:00,,,,,,,,,,,,,,,,,,,,,,,,,,,,,,,,,,,,,,,,,,,,,,,,,,,,,,,,,,,,,,,,,,,,,,,,,,,,,,,,,,,,,,,,,,,,,,,,,,,,,,,,,,,,,,,,
01HJF17A04ZEKSDRK0QXC2Y336,game ended,2023-12-24T18:09:59.637442-05:00,asdfawef,2023-12-24T18:05:37.540039-05:00,01HJF1766NGN9YNH0F3PY7FWZD,2023-12-24T18:05:37.54668-05:00,"{""playerCount"":2}",2023-12-24T18:05:37.54668-05:00,Two Players,2023-12-24T18:05:37.54668-05:00,{},2023-12-24T18:05:37.557594-05:00,true,2023-12-24T18:05:45.058476-05:00,01HJF179ZT4SKRQRET70AQ4484,2023-12-24T18:05:37.540039-05:00,390,2023-12-24T18:09:57.654849-05:00,"[""low"",""high"",15,5]",2023-12-24T18:05:50.393219-05:00,"[""high"",""high"",15,9]",2023-12-24T18:09:36.57776-05:00,"[""high"",""high"",10,9]",2023-12-24T18:08:33.413064-05:00,"[""low"",""low"",10,5]",2023-12-24T18:07:12.728084-05:00,,,,,high,2023-12-24T18:09:42.651483-05:00,65,2023-12-24T18:09:42.651483-05:00,high,2023-12-24T18:09:42.651483-05:00,390,2023-12-24T18:09:42.651483-05:00,15,2023-12-24T18:09:42.651483-05:00,9,2023-12-24T18:09:42.651483-05:00,390,2023-12-24T18:09:42.651483-05:00,,,,,,,,,,,,,,,,,,,,,,,,,,,,,,,,,,,,,,,,,,,,,,,,,,,,,,,,,,,,,,,,,,,,,,,,,,,,,,,,,,,,,,,,,,,,,,
01HJF17DYRQ4J1X52C4G60XQ0H,game ended,2023-12-24T18:09:59.637442-05:00,awefawefa,2023-12-24T18:05:41.592175-05:00,01HJF1766NGN9YNH0F3PY7FWZD,2023-12-24T18:05:41.599851-05:00,"{""playerCount"":2}",2023-12-24T18:05:41.599851-05:00,Two Players,2023-12-24T18:05:41.599851-05:00,"{""participantKey"":""1703442529002""}",2023-12-24T18:05:41.611379-05:00,true,2023-12-24T18:05:43.040238-05:00,01HJF17DYFF871G05JJ3J1YFP4,2023-12-24T18:05:41.592175-05:00,145,2023-12-24T18:09:59.582933-05:00,"[""high"",""low"",10,9]",2023-12-24T18:05:57.322619-05:00,"[""low"",""low"",10,5]",2023-12-24T18:09:42.636445-05:00,"[""high"",""high"",15,9]",2023-12-24T18:08:42.064239-05:00,"[""high"",""high"",15,9]",2023-12-24T18:07:18.264209-05:00,,,,,low,2023-12-24T18:09:42.651483-05:00,29,2023-12-24T18:09:42.651483-05:00,low,2023-12-24T18:09:42.651483-05:00,145,2023-12-24T18:09:42.651483-05:00,10,2023-12-24T18:09:42.651483-05:00,5,2023-12-24T18:09:42.651483-05:00,145,2023-12-24T18:09:42.651483-05:00,,,,,,,,,,,,,,,,,,,,,,,,,,,,,,,,,,,,,,,,,,,,,,,,,,,,,,,,,,,,,,,,,,,,,,,,,,,,,,,,,,,,,,,,,,,,,,
01HJF1FMMVHYSWWJ4M23EVJPXQ,game terminated,2023-12-24T19:03:40.52187-05:00,sdfaewfawefg,2023-12-24T18:10:10.587899-05:00,01HJF1FDV79XB5959Z33FP9TMH,2023-12-24T18:10:10.593122-05:00,"{""playerCount"":2}",2023-12-24T18:10:10.593122-05:00,Two Players,2023-12-24T18:10:10.593122-05:00,{},2023-12-24T18:10:10.601482-05:00,true,2023-12-24T18:10:15.805559-05:00,01HJF1FMMDG5KR1ZS9KBDX9CWT,2023-12-24T18:10:10.587899-05:00,87,2023-12-24T19:03:32.15123-05:00,"[""high"",""low"",10,9]",2023-12-24T18:10:25.433679-05:00,,,,,,,,,,,low,2023-12-24T18:10:32.946468-05:00,87,2023-12-24T18:10:32.946468-05:00,high,2023-12-24T18:10:32.946468-05:00,87,2023-12-24T18:10:32.946468-05:00,10,2023-12-24T18:10:32.946468-05:00,9,2023-12-24T18:10:32.946468-05:00,87,2023-12-24T18:10:32.946468-05:00,,,,,,,,,,,,,,,,,,,,,,,,,,,,,,,,,,,,,,,,,,,,,,,,,,,,,,,,,,,,,,,,,,,,,,,,,,,,,,,,,,,,,,,,,,,,,,
01HJF1FQR8X8Z8Q5ZCTBYWBET3,game terminated,2023-12-24T19:03:40.52187-05:00,wagaweghaerh,2023-12-24T18:10:13.772267-05:00,01HJF1FDV79XB5959Z33FP9TMH,2023-12-24T18:10:13.782411-05:00,"{""playerCount"":2}",2023-12-24T18:10:13.782411-05:00,Two Players,2023-12-24T18:10:13.782411-05:00,"{""participantKey"":""1703442529002""}",2023-12-24T18:10:13.792683-05:00,true,2023-12-24T18:10:17.675288-05:00,01HJF1FQQVMPK762WDCB6Q77P2,2023-12-24T18:10:13.772267-05:00,,,"[""low"",""high"",15,5]",2023-12-24T18:10:32.931486-05:00,,,,,,,,,,,high,2023-12-24T18:10:32.946468-05:00,14,2023-12-24T18:10:32.946468-05:00,low,2023-12-24T18:10:32.946468-05:00,140,2023-12-24T18:10:32.946468-05:00,15,2023-12-24T18:10:32.946468-05:00,5,2023-12-24T18:10:32.946468-05:00,140,2023-12-24T18:10:32.946468-05:00,,,,,,,,,,,,,,,,,,,,,,,,,,,,,,,,,,,,,,,,,,,,,,,,,,,,,,,,,,,,,,,,,,,,,,,,,,,,,,,,,,,,,,,,,,,,,,
01HJF4J067BC3CHMXSR2PBPEYE,game ended,2023-12-24T20:18:09.336743-05:00,;lkjads;lkfja,2023-12-24T19:03:53.671109-05:00,01HJF4HQN3TDQW8E3PWPA34JES,2023-12-24T19:03:53.681867-05:00,"{""playerCount"":2}",2023-12-24T19:03:53.681867-05:00,Two Players,2023-12-24T19:03:53.681867-05:00,{},2023-12-24T19:03:53.698562-05:00,true,2023-12-24T19:04:02.880524-05:00,01HJF4J05RVEMQETCQWKNHSWV2,2023-12-24T19:03:53.671109-05:00,,,"[""low"",""high"",15,5]",2023-12-24T19:04:33.613238-05:00,,,"[""high"",""high"",10,9]",2023-12-24T20:09:24.748258-05:00,"[""low"",""high"",15,5]",2023-12-24T19:08:35.199064-05:00,,,,,high,2023-12-24T20:09:29.050422-05:00,76,2023-12-24T20:09:29.050422-05:00,high,2023-12-24T20:09:29.050422-05:00,76,2023-12-24T20:09:29.050422-05:00,10,2023-12-24T20:09:29.050422-05:00,9,2023-12-24T20:09:29.050422-05:00,76,2023-12-24T20:09:29.050422-05:00,,,,,,,,,,,,,,,,,,,,,,,,,,,,,,,,,,,,,,,,,,,,,,,,,,,,,,,,,,,,,,,,,,,,,,,,,,,,,,,,,,,,,,,,,,,,,,
01HJF4J4WB6K4V0F4RXAV6B36X,game ended,2023-12-24T20:18:09.336743-05:00,adkjawlkehawliuhf,2023-12-24T19:03:58.475745-05:00,01HJF4HQN3TDQW8E3PWPA34JES,2023-12-24T19:03:58.481041-05:00,"{""playerCount"":2}",2023-12-24T19:03:58.481041-05:00,Two Players,2023-12-24T19:03:58.481041-05:00,"{""participantKey"":""1703462635894""}",2023-12-24T19:03:58.488627-05:00,true,2023-12-24T19:04:03.695653-05:00,01HJF4J4VS7GEB0SZ568ERH32S,2023-12-24T19:03:58.475745-05:00,,,"[""high"",""low"",10,9]",2023-12-24T19:04:44.264928-05:00,,,"[""low"",""low"",15,5]",2023-12-24T20:09:29.041115-05:00,"[""high"",""low"",10,9]",2023-12-24T19:08:40.281735-05:00,,,,,low,2023-12-24T20:09:29.050422-05:00,14,2023-12-24T20:09:29.050422-05:00,low,2023-12-24T20:09:29.050422-05:00,140,2023-12-24T20:09:29.050422-05:00,15,2023-12-24T20:09:29.050422-05:00,5,2023-12-24T20:09:29.050422-05:00,140,2023-12-24T20:09:29.050422-05:00,,,,,,,,,,,,,,,,,,,,,,,,,,,,,,,,,,,,,,,,,,,,,,,,,,,,,,,,,,,,,,,,,,,,,,,,,,,,,,,,,,,,,,,,,,,,,,
01HJKMC3FSR3PQ0S3V0YYV0AZ4,game ended,2023-12-26T13:19:27.735951-05:00,soloUser,2023-12-26T12:57:15.385658-05:00,01HJKMBXC3YVFESBHG197W2J31,2023-12-26T12:57:15.390179-05:00,"{""playerCount"":1}",2023-12-26T12:57:15.390179-05:00,Solo,2023-12-26T12:57:15.390179-05:00,{},2023-12-26T12:57:15.404532-05:00,true,2023-12-26T12:57:17.122801-05:00,01HJKMC3FFDVGX5FQPWSHYB28G,2023-12-26T12:57:15.385658-05:00,,,"[""high"",""high"",10,9]",2023-12-26T13:00:19.848727-05:00,,,,,"[""low"",""high"",15,5,833]",2023-12-26T13:04:27.288469-05:00,,,,,high,2023-12-26T13:04:27.297882-05:00,44,2023-12-26T13:04:27.297882-05:00,low,2023-12-26T13:04:27.297882-05:00,-393,2023-12-26T13:04:27.297882-05:00,15,2023-12-26T13:04:27.297882-05:00,5,2023-12-26T13:04:27.297882-05:00,-393,2023-12-26T13:04:27.297882-05:00,833,2023-12-26T13:04:27.297882-05:00,,,,,,,,,,,,,,,,,,,,,,,,,,,,,,,,,,,,,,,,,,,,,,,,,,,,,,,,,,,,,,,,,,,,,,,,,,,,,,,,,,,,,,,,,,,,
01HJKP1K6PGGYN2YQ4V40422SM,game ended,2023-12-26T13:30:58.798017-05:00,solo user,2023-12-26T13:26:28.18306-05:00,01HJKP1CY25MSZMM60RTSVND5S,2023-12-26T13:26:28.194045-05:00,"{""playerCount"":1}",2023-12-26T13:26:28.194045-05:00,Solo,2023-12-26T13:26:28.194045-05:00,{},2023-12-26T13:26:28.205182-05:00,true,2023-12-26T13:26:29.152949-05:00,01HJKP1K600VPYCQT7KB70BKJM,2023-12-26T13:26:28.18306-05:00,676,2023-12-26T13:27:27.499933-05:00,"[""low"",""high"",15,5,500]",2023-12-26T13:26:40.758654-05:00,"[""low"",""low"",10,5,0]",2023-12-26T13:28:38.71566-05:00,"[""low"",""low"",15,5,null]",2023-12-26T13:27:21.652243-05:00,"[""high"",""high"",15,9,200]",2023-12-26T13:27:08.024193-05:00,,,,,low,2023-12-26T13:28:38.723094-05:00,65,2023-12-26T13:28:38.723094-05:00,low,2023-12-26T13:28:38.723094-05:00,325,2023-12-26T13:28:38.723094-05:00,10,2023-12-26T13:28:38.723094-05:00,5,2023-12-26T13:28:38.723094-05:00,1001,2023-12-26T13:28:38.723094-05:00,0,2023-12-26T13:28:38.723094-05:00,100,2023-12-26T13:28:38.723094-05:00,false,2023-12-26T13:28:38.723094-05:00,,,,,,,,,,,,,,,,,,,,,,,,,,,,,,,,,,,,,,,,,,,,,,,,,,,,,,,,,,,,,,,,,,,,,,,,,,,,,,,,,,,,,,,,
01HJKPF1Z8NE1HT7CM164TGK9K,game terminated,2023-12-26T13:51:01.230858-05:00,aesjfawkeljhf,2023-12-26T13:33:49.288268-05:00,01HJKPEW82V9EQ9DKN4B4C6K4R,2023-12-26T13:33:49.290454-05:00,"{""playerCount"":1}",2023-12-26T13:33:49.290454-05:00,Solo,2023-12-26T13:33:49.290454-05:00,{},2023-12-26T13:33:49.296414-05:00,true,2023-12-26T13:33:52.537856-05:00,01HJKPF1Z2AJRT9WM303KQNXFB,2023-12-26T13:33:49.288268-05:00,,,"[""low"",""high"",10,5,0]",2023-12-26T13:36:58.819427-05:00,,,"[""low"",""low"",10,5,0]",2023-12-26T13:49:35.360963-05:00,,,,,,,low,2023-12-26T13:49:35.369903-05:00,64,2023-12-26T13:49:35.369903-05:00,low,2023-12-26T13:49:35.369903-05:00,320,2023-12-26T13:49:35.369903-05:00,10,2023-12-26T13:49:35.369903-05:00,5,2023-12-26T13:49:35.369903-05:00,320,2023-12-26T13:49:35.369903-05:00,0,2023-12-26T13:49:35.369903-05:00,100,2023-12-26T13:49:35.369903-05:00,false,2023-12-26T13:49:35.369903-05:00,,,,,,,,,,,,,,,,,,,,,,,,,,,,,,,,,,,,,,,,,,,,,,,,,,,,,,,,,,,,,,,,,,,,,,,,,,,,,,,,,,,,,,,,
01HJKQET5TWFS01N7R0KK86H26,game terminated,2023-12-26T13:53:39.11362-05:00,kawhefawhef,2023-12-26T13:51:09.882555-05:00,01HJKQEK0F3TVVB9M8AE16YPS6,2023-12-26T13:51:09.885225-05:00,"{""playerCount"":1}",2023-12-26T13:51:09.885225-05:00,Solo,2023-12-26T13:51:09.885225-05:00,{},2023-12-26T13:51:09.891336-05:00,true,2023-12-26T13:51:11.127276-05:00,01HJKQET5HVVVWNR5H2S89R2S5,2023-12-26T13:51:09.882555-05:00,,,"[""low"",""low"",10,5,145]",2023-12-26T13:51:18.518938-05:00,,,,,,,,,,,low,2023-12-26T13:51:18.527715-05:00,84,2023-12-26T13:51:18.527715-05:00,low,2023-12-26T13:51:18.527715-05:00,275,2023-12-26T13:51:18.527715-05:00,10,2023-12-26T13:51:18.527715-05:00,5,2023-12-26T13:51:18.527715-05:00,275,2023-12-26T13:51:18.527715-05:00,145,2023-12-26T13:51:18.527715-05:00,114,2023-12-26T13:51:18.527715-05:00,false,2023-12-26T13:51:18.527715-05:00,,,,,,,,,,,,,,,,,,,,,,,,,,,,,,,,,,,,,,,,,,,,,,,,,,,,,,,,,,,,,,,,,,,,,,,,,,,,,,,,,,,,,,,,
01HJKQKJKD1ARJYA1Z12B5S1A0,game terminated,2023-12-26T13:55:26.622189-05:00,trsbhf,2023-12-26T13:53:45.965266-05:00,01HJKQKD6T3215TKFTKM5VTKMT,2023-12-26T13:53:45.968376-05:00,"{""playerCount"":1}",2023-12-26T13:53:45.968376-05:00,Solo,2023-12-26T13:53:45.968376-05:00,{},2023-12-26T13:53:45.973978-05:00,true,2023-12-26T13:53:47.275961-05:00,01HJKQKJK5GTB5PN2C7NDKJF5D,2023-12-26T13:53:45.965266-05:00,,,"[""low"",""low"",10,5,132]",2023-12-26T13:53:54.748392-05:00,,,,,,,,,,,low,2023-12-26T13:53:54.756845-05:00,83,2023-12-26T13:53:54.756845-05:00,low,2023-12-26T13:53:54.756845-05:00,283,2023-12-26T13:53:54.756845-05:00,10,2023-12-26T13:53:54.756845-05:00,5,2023-12-26T13:53:54.756845-05:00,283,2023-12-26T13:53:54.756845-05:00,132,2023-12-26T13:53:54.756845-05:00,113,2023-12-26T13:53:54.756845-05:00,false,2023-12-26T13:53:54.756845-05:00,,,,,,,,,,,,,,,,,,,,,,,,,,,,,,,,,,,,,,,,,,,,,,,,,,,,,,,,,,,,,,,,,,,,,,,,,,,,,,,,,,,,,,,,
01HJKQPVZSZN2DB8Z04YS9VE3H,game terminated,2023-12-26T13:59:01.699605-05:00,grawvw,2023-12-26T13:55:33.881918-05:00,01HJKQPNVYFR3THFQCEV5ZTGAJ,2023-12-26T13:55:33.886527-05:00,"{""playerCount"":1}",2023-12-26T13:55:33.886527-05:00,Solo,2023-12-26T13:55:33.886527-05:00,{},2023-12-26T13:55:33.900708-05:00,true,2023-12-26T13:55:35.303255-05:00,01HJKQPVZCMYNB6FZN5XKTXSNS,2023-12-26T13:55:33.881918-05:00,670,2023-12-26T13:58:46.486586-05:00,"[""low"",""low"",10,5,0]",2023-12-26T13:55:40.834273-05:00,,,"[""high"",""high"",15,9,0]",2023-12-26T13:58:52.314302-05:00,"[""low"",""high"",15,5,0]",2023-12-26T13:57:43.52304-05:00,,,,,high,2023-12-26T13:58:52.320717-05:00,92,2023-12-26T13:58:52.320717-05:00,high,2023-12-26T13:58:52.320717-05:00,552,2023-12-26T13:58:52.320717-05:00,15,2023-12-26T13:58:52.320717-05:00,9,2023-12-26T13:58:52.320717-05:00,1222,2023-12-26T13:58:52.320717-05:00,0,2023-12-26T13:58:52.320717-05:00,100,2023-12-26T13:58:52.320717-05:00,false,2023-12-26T13:58:52.320717-05:00,,,,,,,,,,,,,,,,,,,,,,,,,,,,,,,,,,,,,,,,,,,,,,,,,,,,,,,,,,,,,,,,,,,,,,,,,,,,,,,,,,,,,,,,
01HJKQXR84M90HNK73PW3ZVS6A,game ended,2023-12-26T14:14:20.169181-05:00,jane doe,2023-12-26T13:59:19.428328-05:00,01HJKQXF6HB020N25E9CD49WY2,2023-12-26T13:59:19.430356-05:00,"{""playerCount"":2}",2023-12-26T13:59:19.430356-05:00,Two Players,2023-12-26T13:59:19.430356-05:00,{},2023-12-26T13:59:19.434459-05:00,true,2023-12-26T13:59:30.138669-05:00,01HJKQXR7Y9PXJHMPJ8RCKES5N,2023-12-26T13:59:19.428328-05:00,,,"[""low"",""high"",15,5,500]",2023-12-26T13:59:36.979305-05:00,"[""low"",""low"",10,5,0]",2023-12-26T14:12:00.100863-05:00,"[""low"",""low"",10,5,0]",2023-12-26T14:09:00.699505-05:00,"[""low"",""high"",15,5,0]",2023-12-26T14:04:49.721942-05:00,,,,,low,2023-12-26T14:12:00.107418-05:00,53,2023-12-26T14:12:00.107418-05:00,low,2023-12-26T14:12:00.107418-05:00,265,2023-12-26T14:12:00.107418-05:00,10,2023-12-26T14:12:00.107418-05:00,5,2023-12-26T14:12:00.107418-05:00,265,2023-12-26T14:12:00.107418-05:00,0,2023-12-26T14:12:00.107418-05:00,100,2023-12-26T14:12:00.107418-05:00,false,2023-12-26T14:12:00.107418-05:00,,,,,,,,,,,,,,,,,,,,,,,,,,,,,,,,,,,,,,,,,,,,,,,,,,,,,,,,,,,,,,,,,,,,,,,,,,,,,,,,,,,,,,,,
01HJKQXZJ1FFZTEDY4MYFWRXZC,game ended,2023-12-26T14:14:20.169181-05:00,jane doe 2,2023-12-26T13:59:26.913652-05:00,01HJKQXF6HB020N25E9CD49WY2,2023-12-26T13:59:26.916323-05:00,"{""playerCount"":2}",2023-12-26T13:59:26.916323-05:00,Two Players,2023-12-26T13:59:26.916323-05:00,"{""participantKey"":""1703617161337""}",2023-12-26T13:59:26.921487-05:00,true,2023-12-26T13:59:28.651443-05:00,01HJKQXZHRB347V1V752NVEP1N,2023-12-26T13:59:26.913652-05:00,,,"[""high"",""high"",15,9,0]",2023-12-26T13:59:44.308533-05:00,"[""high"",""high"",15,9,0]",2023-12-26T14:11:55.107749-05:00,"[""high"",""high"",15,9,0]",2023-12-26T14:08:55.768163-05:00,"[""high"",""high"",10,9,0]",2023-12-26T14:04:43.559862-05:00,,,,,high,2023-12-26T14:12:00.107418-05:00,98,2023-12-26T14:12:00.107418-05:00,high,2023-12-26T14:12:00.107418-05:00,588,2023-12-26T14:12:00.107418-05:00,15,2023-12-26T14:12:00.107418-05:00,9,2023-12-26T14:12:00.107418-05:00,588,2023-12-26T14:12:00.107418-05:00,0,2023-12-26T14:12:00.107418-05:00,100,2023-12-26T14:12:00.107418-05:00,false,2023-12-26T14:12:00.107418-05:00,,,,,,,,,,,,,,,,,,,,,,,,,,,,,,,,,,,,,,,,,,,,,,,,,,,,,,,,,,,,,,,,,,,,,,,,,,,,,,,,,,,,,,,,
01HJKRVF4NFSVX6TJB7AW17D8B,game ended,2023-12-26T14:26:52.771998-05:00,asdawegf,2023-12-26T14:15:33.141977-05:00,01HJKRVC7F3WKD1FDQD6F7X6WZ,2023-12-26T14:15:33.145786-05:00,"{""playerCount"":2}",2023-12-26T14:15:33.145786-05:00,Two Players,2023-12-26T14:15:33.145786-05:00,"{""participantKey"":""1703617161337""}",2023-12-26T14:15:33.149867-05:00,true,2023-12-26T14:15:37.622747-05:00,01HJKRVF4E170CTVMY2H6G0DMC,2023-12-26T14:15:33.141977-05:00,,,"[""high"",""high"",15,9,0]",2023-12-26T14:15:42.587973-05:00,"[""high"",""high"",15,9,0]",2023-12-26T14:24:31.212173-05:00,"[""high"",""high"",15,9,0]",2023-12-26T14:21:46.223141-05:00,"[""high"",""high"",15,9,0]",2023-12-26T14:19:08.448824-05:00,,,,,high,2023-12-26T14:24:32.711216-05:00,93,2023-12-26T14:24:32.711216-05:00,high,2023-12-26T14:24:32.711216-05:00,558,2023-12-26T14:24:32.711216-05:00,15,2023-12-26T14:24:32.711216-05:00,9,2023-12-26T14:24:32.711216-05:00,558,2023-12-26T14:24:32.711216-05:00,0,2023-12-26T14:24:32.711216-05:00,100,2023-12-26T14:24:32.711216-05:00,false,2023-12-26T14:24:32.711216-05:00,,,,,,,,,,,,,,,,,,,,,,,,,,,,,,,,,,,,,,,,,,,,,,,,,,,,,,,,,,,,,,,,,,,,,,,,,,,,,,,,,,,,,,,,
01HJKRVJ5JJKF5B18E89GCXXVH,game ended,2023-12-26T14:26:52.771998-05:00,awefawfaqwf,2023-12-26T14:15:36.242833-05:00,01HJKRVC7F3WKD1FDQD6F7X6WZ,2023-12-26T14:15:36.245274-05:00,"{""playerCount"":2}",2023-12-26T14:15:36.245274-05:00,Two Players,2023-12-26T14:15:36.245274-05:00,{},2023-12-26T14:15:36.249371-05:00,true,2023-12-26T14:15:36.34869-05:00,01HJKRVJ5AECKVRYK7PYSHQY7Y,2023-12-26T14:15:36.242833-05:00,,,"[""low"",""low"",10,5,0]",2023-12-26T14:15:47.314128-05:00,"[""low"",""low"",10,5,0]",2023-12-26T14:24:32.706115-05:00,"[""low"",""low"",10,5,0]",2023-12-26T14:21:51.643171-05:00,"[""low"",""low"",10,5,0]",2023-12-26T14:19:04.012968-05:00,,,,,low,2023-12-26T14:24:32.711216-05:00,68,2023-12-26T14:24:32.711216-05:00,low,2023-12-26T14:24:32.711216-05:00,340,2023-12-26T14:24:32.711216-05:00,10,2023-12-26T14:24:32.711216-05:00,5,2023-12-26T14:24:32.711216-05:00,340,2023-12-26T14:24:32.711216-05:00,0,2023-12-26T14:24:32.711216-05:00,100,2023-12-26T14:24:32.711216-05:00,false,2023-12-26T14:24:32.711216-05:00,,,,,,,,,,,,,,,,,,,,,,,,,,,,,,,,,,,,,,,,,,,,,,,,,,,,,,,,,,,,,,,,,,,,,,,,,,,,,,,,,,,,,,,,
01HJKSJ9PF0W9BBZQ10H8REFS4,game terminated,2023-12-27T18:18:43.573362-05:00,aawegawe,2023-12-26T14:28:01.23158-05:00,01HJKSJ4HZEAB1ST95FZAXA71J,2023-12-26T14:28:01.234088-05:00,"{""playerCount"":2}",2023-12-26T14:28:01.234088-05:00,Two Players,2023-12-26T14:28:01.234088-05:00,"{""participantKey"":""1703617161337""}",2023-12-26T14:28:01.238968-05:00,true,2023-12-26T14:28:06.889793-05:00,01HJKSJ9P9S8J7DYAJW4R76R1A,2023-12-26T14:28:01.23158-05:00,,2023-12-26T14:32:15.88852-05:00,,,,,"[""low"",""high"",15,5,500]",2023-12-26T14:37:57.937211-05:00,"[""high"",""high"",15,9,0]",2023-12-26T14:34:27.328143-05:00,,,,,high,2023-12-26T14:38:05.673953-05:00,34,2023-12-26T14:38:05.673953-05:00,low,2023-12-26T14:38:05.673953-05:00,-160,2023-12-26T14:38:05.673953-05:00,15,2023-12-26T14:38:05.673953-05:00,5,2023-12-26T14:38:05.673953-05:00,-160,2023-12-26T14:38:05.673953-05:00,500,2023-12-26T14:38:05.673953-05:00,150,2023-12-26T14:38:05.673953-05:00,true,2023-12-26T14:38:05.673953-05:00,,,,,,,,,,,,,,,,,,,,,,,,,,,,,,,,,,,,,,,,,,,,,,,,,,,,,,,,,,,,,,,,,,,,,,,,,,,,,,,,,,,,,,,,
01HJKSJCSNZ9NT3J02AVP148WA,game terminated,2023-12-27T18:18:43.573362-05:00,waegawegaweg,2023-12-26T14:28:04.405863-05:00,01HJKSJ4HZEAB1ST95FZAXA71J,2023-12-26T14:28:04.408338-05:00,"{""playerCount"":2}",2023-12-26T14:28:04.408338-05:00,Two Players,2023-12-26T14:28:04.408338-05:00,{},2023-12-26T14:28:04.412661-05:00,true,2023-12-26T14:28:05.399265-05:00,01HJKSJCSCMB2F2E65AR826XXN,2023-12-26T14:28:04.405863-05:00,,2023-12-26T14:32:18.058871-05:00,,,,,"[""high"",""high"",15,9,500]",2023-12-26T14:38:05.667974-05:00,"[""high"",""low"",15,9,500]",2023-12-26T14:34:44.405327-05:00,,,,,high,2023-12-26T14:38:05.673953-05:00,134,2023-12-26T14:38:05.673953-05:00,high,2023-12-26T14:38:05.673953-05:00,304,2023-12-26T14:38:05.673953-05:00,15,2023-12-26T14:38:05.673953-05:00,9,2023-12-26T14:38:05.673953-05:00,304,2023-12-26T14:38:05.673953-05:00,500,2023-12-26T14:38:05.673953-05:00,150,2023-12-26T14:38:05.673953-05:00,false,2023-12-26T14:38:05.673953-05:00,,,,,,,,,,,,,,,,,,,,,,,,,,,,,,,,,,,,,,,,,,,,,,,,,,,,,,,,,,,,,,,,,,,,,,,,,,,,,,,,,,,,,,,,
01HJPS6B70NBYJMYNSEFPTGR0T,,,aawfawef,2023-12-27T18:19:12.864288-05:00,01HJPS5RW7N8Z9ZH74VE188JG0,2023-12-27T18:19:12.870148-05:00,"{""playerCount"":1}",2023-12-27T18:19:12.870148-05:00,Solo,2023-12-27T18:19:12.870148-05:00,{},2023-12-27T18:19:12.886001-05:00,true,2023-12-27T18:19:14.136201-05:00,01HJPS6B6K8DJ96X1AHTPNNFJC,2023-12-27T18:19:12.864288-05:00,48,2023-12-27T18:19:52.841393-05:00,"[""high"",""low"",15,9,0]",2023-12-27T18:19:21.781839-05:00,,,,,,,,,,,low,2023-12-27T18:19:21.793332-05:00,8,2023-12-27T18:19:21.793332-05:00,high,2023-12-27T18:19:21.793332-05:00,48,2023-12-27T18:19:21.793332-05:00,15,2023-12-27T18:19:21.793332-05:00,9,2023-12-27T18:19:21.793332-05:00,48,2023-12-27T18:19:21.793332-05:00,0,2023-12-27T18:19:21.793332-05:00,100,2023-12-27T18:19:21.793332-05:00,true,2023-12-27T18:19:21.793332-05:00,,,,,,,,,,,,,,,,,,,,,,,,,,,,,,,,,,,,,,,,,,,,,,,,,,,,,,,,,,,,,,,,,,,,,,,,,,,,,,,,,,,,,,,,
01HJPS929W2D7XZJX6CZFB8QCC,game ended,2023-12-27T18:24:24.237887-05:00,awegawegaew,2023-12-27T18:20:42.044843-05:00,01HJPS8X1CFXW0BDH9CTEN60NQ,2023-12-27T18:20:42.051082-05:00,"{""playerCount"":1}",2023-12-27T18:20:42.051082-05:00,Solo,2023-12-27T18:20:42.051082-05:00,{},2023-12-27T18:20:42.064682-05:00,true,2023-12-27T18:20:43.083515-05:00,01HJPS929MAZAZMSSQKBNXX7Q8,2023-12-27T18:20:42.044843-05:00,-339,2023-12-27T18:21:53.881051-05:00,"[""high"",""low"",10,9,500]",2023-12-27T18:20:52.078838-05:00,"[""high"",""high"",15,9,100]",2023-12-27T18:22:04.145159-05:00,"[""low"",""low"",10,5,500]",2023-12-27T18:21:45.418768-05:00,"[""low"",""high"",15,5,300]",2023-12-27T18:21:21.156823-05:00,,,,,high,2023-12-27T18:22:04.157896-05:00,76,2023-12-27T18:22:04.157896-05:00,high,2023-12-27T18:22:04.157896-05:00,356,2023-12-27T18:22:04.157896-05:00,15,2023-12-27T18:22:04.157896-05:00,9,2023-12-27T18:22:04.157896-05:00,17,2023-12-27T18:22:04.157896-05:00,100,2023-12-27T18:22:04.157896-05:00,120,2023-12-27T18:22:04.157896-05:00,false,2023-12-27T18:22:04.157896-05:00,,,,,,,,,,,,,,,,,,,,,,,,,,,,,,,,,,,,,,,,,,,,,,,,,,,,,,,,,,,,,,,,,,,,,,,,,,,,,,,,,,,,,,,,
01HJPSSADRTTC5DE8QRQWYCM4Z,game terminated,2023-12-27T18:38:48.515622-05:00,gawegw,2023-12-27T18:29:34.648492-05:00,01HJPSS6DE473PSY88QVXNY22Q,2023-12-27T18:29:34.653777-05:00,"{""playerCount"":1}",2023-12-27T18:29:34.653777-05:00,Solo,2023-12-27T18:29:34.653777-05:00,{},2023-12-27T18:29:34.661043-05:00,true,2023-12-27T18:29:35.674955-05:00,01HJPSSAD99A3PYF3RSRV69J6K,2023-12-27T18:29:34.648492-05:00,,2023-12-27T18:38:38.85593-05:00,,,,,,,,,,,,,,,,,,,,,,,,,,,,,,,,,,,,,,,,,,,,,,,,,,,,,,,,,,,,,,,,,,,,,,,,,,,,,,,,,,,,,,,,,,,,,,,,,,,,,,,,,,,,,,,,,,,,,,,,
01HJPTAHMWE877APWK95JJZ1AK,game ended,2023-12-27T18:58:33.711528-05:00,awegaweaweh,2023-12-27T18:38:59.100722-05:00,01HJPTA888KVNSA39CMK17WTRX,2023-12-27T18:38:59.105821-05:00,"{""playerCount"":1}",2023-12-27T18:38:59.105821-05:00,Solo,2023-12-27T18:38:59.105821-05:00,{},2023-12-27T18:38:59.116929-05:00,true,2023-12-27T18:39:00.250898-05:00,01HJPTAHMGB0B8WBRHER6ZJPY9,2023-12-27T18:38:59.100722-05:00,,2023-12-27T18:58:33.67789-05:00,,,,,,,,,,,,,,,,,,,,,,,,,,,,,,,,,,,,,,,,,,,,,,,,,,,,,,,,,,,,,,,,,,,,,,,,,,,,,,,,,,,,,,,,,,,,,,,,,,,,,,,,,,,,,,,,,,,,,,,,
01HJPVF88M4EZ85ETJF1NG69ZE,game ended,2023-12-27T19:18:17.922879-05:00,strjnnnn,2023-12-27T18:59:01.908541-05:00,01HJPVF02DSS0WXFK0DDECMEWF,2023-12-27T18:59:01.910955-05:00,"{""playerCount"":1}",2023-12-27T18:59:01.910955-05:00,Solo,2023-12-27T18:59:01.910955-05:00,{},2023-12-27T18:59:01.91675-05:00,true,2023-12-27T18:59:05.732729-05:00,01HJPVF88EEGYP59HMWG00V6V1,2023-12-27T18:59:01.908541-05:00,,2023-12-27T19:13:07.916585-05:00,[null],2023-12-27T19:02:30.570846-05:00,"[null,null]",2023-12-27T19:15:57.862432-05:00,,,,,,,,,,2023-12-27T19:15:57.871677-05:00,15,2023-12-27T19:15:57.871677-05:00,,2023-12-27T19:15:57.871677-05:00,,2023-12-27T19:15:57.871677-05:00,,2023-12-27T19:15:57.871677-05:00,,2023-12-27T19:15:57.871677-05:00,,2023-12-27T19:15:57.871677-05:00,,2023-12-27T19:15:57.871677-05:00,100,2023-12-27T19:15:57.871677-05:00,false,2023-12-27T19:15:57.871677-05:00,,,,,,,,,,,,,,,,,,,,,,,,,,,,,,,,,,,,,,,,,,,,,,,,,,,,,,,,,,,,,,,,,,,,,,,,,,,,,,,,,,,,,,,,
01HJPWKANMAW7A3PEB0NBC2BT4,game terminated,2023-12-27T19:28:32.264574-05:00,aaegaweg,2023-12-27T19:18:44.020935-05:00,01HJPWK8CS74PZZRG29QCNJBRC,2023-12-27T19:18:44.024982-05:00,"{""playerCount"":1}",2023-12-27T19:18:44.024982-05:00,Solo,2023-12-27T19:18:44.024982-05:00,{},2023-12-27T19:18:44.031664-05:00,true,2023-12-27T19:18:44.966835-05:00,01HJPWKANC6ZSZWKN2BTQ8JTKT,2023-12-27T19:18:44.020935-05:00,,2023-12-27T19:28:22.460981-05:00,"[""high"",""high"",15,9,0]",2023-12-27T19:28:16.216996-05:00,,,,,,,,,,,,2023-12-27T19:18:47.050863-05:00,7,2023-12-27T19:18:47.050863-05:00,low,2023-12-27T19:18:47.050863-05:00,,2023-12-27T19:18:47.050863-05:00,,2023-12-27T19:18:47.050863-05:00,,2023-12-27T19:18:47.050863-05:00,,2023-12-27T19:18:47.050863-05:00,,2023-12-27T19:18:47.050863-05:00,100,2023-12-27T19:18:47.050863-05:00,true,2023-12-27T19:18:47.050863-05:00,,,,,,,,,,,,,,,,,,,,,,,,,,,,,,,,,,,,,,,,,,,,,,,,,,,,,,,,,,,,,,,,,,,,,,,,,,,,,,,,,,,,,,,,
01HJPX5FZD9XK65D22HAAZ2M8K,game terminated,2023-12-27T19:31:53.874082-05:00,awegwaeaw,2023-12-27T19:28:39.277832-05:00,01HJPX5AA5Z95HB65XAVPX9QET,2023-12-27T19:28:39.281334-05:00,"{""playerCount"":1}",2023-12-27T19:28:39.281334-05:00,Solo,2023-12-27T19:28:39.281334-05:00,{},2023-12-27T19:28:39.286804-05:00,true,2023-12-27T19:28:40.214032-05:00,01HJPX5FZ50P693BW51T3S5S6H,2023-12-27T19:28:39.277832-05:00,,2023-12-27T19:31:11.788276-05:00,"[null,""high"",15,null,290]",2023-12-27T19:30:12.602786-05:00,"[""low"",null]",2023-12-27T19:31:12.828806-05:00,"[""low"",null]",2023-12-27T19:29:58.842447-05:00,"[""low"",null]",2023-12-27T19:29:37.315925-05:00,,,,,,2023-12-27T19:31:53.874668-05:00,7,2023-12-27T19:31:53.874668-05:00,low,2023-12-27T19:31:53.874668-05:00,,2023-12-27T19:31:53.874668-05:00,,2023-12-27T19:31:53.874668-05:00,,2023-12-27T19:31:53.874668-05:00,,2023-12-27T19:31:53.874668-05:00,,2023-12-27T19:31:53.874668-05:00,100,2023-12-27T19:31:53.874668-05:00,true,2023-12-27T19:31:53.874668-05:00,,,,,,,,,,,,,,,,,,,,,,,,,,,,,,,,,,,,,,,,,,,,,,,,,,,,,,,,,,,,,,,,,,,,,,,,,,,,,,,,,,,,,,,,
01HJPXBJT1622K08K1GD7ZFMM8,game ended,2023-12-27T19:35:40.265733-05:00,"bhj,",2023-12-27T19:31:58.785725-05:00,01HJPXBEYT9J1B6XVGZXNTRWMQ,2023-12-27T19:31:58.78984-05:00,"{""playerCount"":1}",2023-12-27T19:31:58.78984-05:00,Solo,2023-12-27T19:31:58.78984-05:00,{},2023-12-27T19:31:58.793601-05:00,true,2023-12-27T19:31:59.790054-05:00,01HJPXBJSV5WTDMGV8F91CTJ0X,2023-12-27T19:31:58.785725-05:00,,2023-12-27T19:35:40.242125-05:00,"[""low"",null,null,5,0]",2023-12-27T19:35:38.330421-05:00,"[null,null]",2023-12-27T19:35:14.623094-05:00,"[null,null]",2023-12-27T19:34:22.204118-05:00,"[null,null]",2023-12-27T19:33:35.917538-05:00,,,,,,2023-12-27T19:35:38.339278-05:00,14,2023-12-27T19:35:38.339278-05:00,,2023-12-27T19:35:38.339278-05:00,,2023-12-27T19:35:38.339278-05:00,,2023-12-27T19:35:38.339278-05:00,,2023-12-27T19:35:38.339278-05:00,,2023-12-27T19:35:38.339278-05:00,,2023-12-27T19:35:38.339278-05:00,100,2023-12-27T19:35:38.339278-05:00,false,2023-12-27T19:35:38.339278-05:00,,,,,,,,,,,,,,,,,,,,,,,,,,,,,,,,,,,,,,,,,,,,,,,,,,,,,,,,,,,,,,,,,,,,,,,,,,,,,,,,,,,,,,,,
01HJPXJJJQE6RYET9C5PN8M8M8,game ended,2023-12-27T19:39:00.679571-05:00,waeaweh,2023-12-27T19:35:47.927159-05:00,01HJPXJEDPEKJ75Q77MH6DJNB6,2023-12-27T19:35:47.929507-05:00,"{""playerCount"":1}",2023-12-27T19:35:47.929507-05:00,Solo,2023-12-27T19:35:47.929507-05:00,{},2023-12-27T19:35:47.935219-05:00,true,2023-12-27T19:35:48.907566-05:00,01HJPXJJJGPVSH8MNVNHBH387A,2023-12-27T19:35:47.927159-05:00,,2023-12-27T19:39:00.657724-05:00,"[""low"",null,null,5,0]",2023-12-27T19:38:59.131307-05:00,,,,,"[null,null]",2023-12-27T19:36:30.585546-05:00,,,,,,2023-12-27T19:37:11.906837-05:00,15,2023-12-27T19:37:11.906837-05:00,low,2023-12-27T19:38:55.342741-05:00,,2023-12-27T19:37:11.906837-05:00,,2023-12-27T19:37:11.906837-05:00,5,2023-12-27T19:38:55.343906-05:00,,2023-12-27T19:37:11.906837-05:00,,2023-12-27T19:37:11.906837-05:00,100,2023-12-27T19:37:11.906837-05:00,false,2023-12-27T19:37:11.906837-05:00,,,,,,,,,,,,,,,,,,,,,,,,,,,,,,,,,,,,,,,,,,,,,,,,,,,,,,,,,,,,,,,,,,,,,,,,,,,,,,,,,,,,,,,,
01HJPXRR9SWVEVS7TJTZC7H4HV,,,jkh,2023-12-27T19:39:10.394018-05:00,01HJPXRKAVX87TVCXPWYK0N2TJ,2023-12-27T19:39:10.397454-05:00,"{""playerCount"":1}",2023-12-27T19:39:10.397454-05:00,Solo,2023-12-27T19:39:10.397454-05:00,{},2023-12-27T19:39:10.403364-05:00,true,2023-12-27T19:39:11.208622-05:00,01HJPXRR9G230MBV1J3QRA8J52,2023-12-27T19:39:10.394018-05:00,-25,2023-12-27T20:14:03.472147-05:00,"[""high"",""low"",15,9,130]",2023-12-27T19:40:59.629839-05:00,,,,,,,,,,,,2023-12-27T19:39:33.679685-05:00,5,2023-12-27T19:39:33.679685-05:00,high,2023-12-28T18:17:49.020041-05:00,-25,2023-12-27T19:39:33.679685-05:00,,2023-12-27T19:39:33.679685-05:00,9,2023-12-28T18:17:49.02209-05:00,-25,2023-12-27T19:39:33.679685-05:00,0,2023-12-27T19:39:33.679685-05:00,100,2023-12-27T19:39:33.679685-05:00,true,2023-12-27T19:39:33.679685-05:00,,,,,,,,,,,,,,,,,,,,,,,,,,,,,,,,,,,,,,,,,,,,,,,,,,,,,,,,,,,,,,,,,,,,,,,,,,,,,,,,,,,,,,,,
01HJSBHVEX1DNPR5B0Z5Q21RDQ,game ended,2023-12-28T18:31:11.135759-05:00,askakljh,2023-12-28T18:18:33.181478-05:00,01HJSBH2ZPRT5YEYCVYW6ABH0J,2023-12-28T18:18:33.187986-05:00,"{""playerCount"":1}",2023-12-28T18:18:33.187986-05:00,Solo,2023-12-28T18:18:33.187986-05:00,{},2023-12-28T18:18:33.208872-05:00,true,2023-12-28T18:18:34.265162-05:00,01HJSBHVEEBD5XYS8N27XCFJ5N,2023-12-28T18:18:33.181478-05:00,4,2023-12-28T18:31:11.098448-05:00,"[""high"",null,null,9,0]",2023-12-28T18:24:11.198597-05:00,,,,,,,,,,,low,2023-12-28T18:18:51.365389-05:00,9,2023-12-28T18:18:51.365389-05:00,high,2023-12-28T18:26:50.686079-05:00,4,2023-12-28T18:18:51.365389-05:00,15,2023-12-28T18:18:51.365389-05:00,9,2023-12-28T18:26:50.688216-05:00,4,2023-12-28T18:18:51.365389-05:00,50,2023-12-28T18:18:51.365389-05:00,110,2023-12-28T18:18:51.365389-05:00,true,2023-12-28T18:18:51.365389-05:00,,,,,,,,,,,,,,,,,,,,,,,,,,,,,,,,,,,,,,,,,,,,,,,,,,,,,,,,,,,,,,,,,,,,,,,,,,,,,,,,,,,,,,,,
01HJSCK87ZT776AVNGGXRSKR41,game ended,2023-12-28T19:29:21.097034-05:00,easj,2023-12-28T18:36:47.615111-05:00,01HJSCK4QR0VVSG65C76XP0S43,2023-12-28T18:36:47.619195-05:00,"{""playerCount"":1}",2023-12-28T18:36:47.619195-05:00,Solo,2023-12-28T18:36:47.619195-05:00,{},2023-12-28T18:36:47.626996-05:00,true,2023-12-28T18:36:48.728073-05:00,01HJSCK87ERW7P3SEVR93QFCSR,2023-12-28T18:36:47.615111-05:00,-1095,2023-12-28T19:29:21.080824-05:00,"[""low"",""low"",null,5,380]",2023-12-28T19:19:14.198839-05:00,"[""high"",""low"",10,9,30]",2023-12-28T19:29:04.56424-05:00,"[""high"",""low"",null,9,500]",2023-12-28T19:27:59.080077-05:00,"[""high"",""low"",null,9,0]",2023-12-28T19:27:24.079389-05:00,,,,,low,2023-12-28T19:29:04.567603-05:00,35,2023-12-28T19:29:04.567603-05:00,high,2023-12-28T19:29:04.567603-05:00,5,2023-12-28T19:29:04.567603-05:00,10,2023-12-28T19:29:04.567603-05:00,9,2023-12-28T19:29:04.567603-05:00,-1095,2023-12-28T19:29:04.567603-05:00,30,2023-12-28T19:29:04.567603-05:00,106,2023-12-28T19:29:04.567603-05:00,true,2023-12-28T19:29:04.567603-05:00,,,,,,,,,,,,,,,,,,,,,,,,,,,,,,,,,,,,,,,,,,,,,,,,,,,,,,,,,,,,,,,,,,,,,,,,,,,,,,,,,,,,,,,,
01HJSFNJKH52NN96J2SQKJTYVY,game ended,2023-12-28T20:54:21.758502-05:00,ldrjgzejlkg,2023-12-28T19:30:29.490002-05:00,01HJSFMFYRE88962E7V1J4D04B,2023-12-28T19:30:29.492723-05:00,"{""playerCount"":1}",2023-12-28T19:30:29.492723-05:00,Solo,2023-12-28T19:30:29.492723-05:00,{},2023-12-28T19:30:29.506366-05:00,true,2023-12-28T19:30:46.903525-05:00,01HJSFNJKA73VMTW4J9YAR5Z8Y,2023-12-28T19:30:29.490002-05:00,-442,2023-12-28T20:54:21.737775-05:00,"[""low"",""low"",10,5,310]",2023-12-28T19:31:18.730883-05:00,"[""low"",""low"",15,5,180]",2023-12-28T20:53:06.0158-05:00,"[""high"",""low"",15,9,370]",2023-12-28T20:49:23.432058-05:00,"[""high"",""high"",10,9,340]",2023-12-28T19:32:49.69952-05:00,,,,,low,2023-12-28T20:53:06.01928-05:00,10,2023-12-28T20:53:06.01928-05:00,low,2023-12-28T20:53:06.01928-05:00,-80,2023-12-28T20:53:06.01928-05:00,15,2023-12-28T20:53:06.01928-05:00,5,2023-12-28T20:53:06.01928-05:00,-442,2023-12-28T20:53:06.01928-05:00,180,2023-12-28T20:53:06.01928-05:00,136,2023-12-28T20:53:06.01928-05:00,false,2023-12-28T20:53:06.01928-05:00,,,,,,,,,,,,,,,,,,,,,,,,,,,,,,,,,,,,,,,,,,,,,,,,,,,,,,,,,,,,,,,,,,,,,,,,,,,,,,,,,,,,,,,,
01HJSMFAS44ZQ1NH1C25Z8WYTN,game terminated,2023-12-29T18:22:39.81233-05:00,sa;lgka,2023-12-28T20:54:27.74836-05:00,01HJSMF8A7PW0BEQ6ABN5PG6QC,2023-12-28T20:54:27.750659-05:00,"{""playerCount"":1}",2023-12-28T20:54:27.750659-05:00,Solo,2023-12-28T20:54:27.750659-05:00,{},2023-12-28T20:54:27.754725-05:00,true,2023-12-28T20:54:28.171062-05:00,01HJSMFARYPTPDTEX40T3D2AJK,2023-12-28T20:54:27.74836-05:00,-146,2023-12-28T21:02:35.614404-05:00,"[""high"",""high"",10,9,220]",2023-12-28T21:02:32.198023-05:00,,,,,,,,,,,high,2023-12-28T21:02:32.204402-05:00,74,2023-12-28T21:02:32.204402-05:00,high,2023-12-28T21:02:39.748472-05:00,-146,2023-12-28T21:02:32.204402-05:00,10,2023-12-28T21:03:06.766749-05:00,9,2023-12-28T21:02:39.749319-05:00,-146,2023-12-28T21:02:32.204402-05:00,220,2023-12-28T21:02:32.204402-05:00,144,2023-12-28T21:02:32.204402-05:00,false,2023-12-28T21:02:32.204402-05:00,,,,,,,,,,,,,,,,,,,,,,,,,,,,,,,,,,,,,,,,,,,,,,,,,,,,,,,,,,,,,,,,,,,,,,,,,,,,,,,,,,,,,,,,
01HJVY7E2AVAKNMYD2E657STYY,game ended,2023-12-29T18:31:14.011096-05:00,player1,2023-12-29T18:23:23.59426-05:00,01HJVY6V5YCBCBRMNAY0SNZZQ8,2023-12-29T18:23:23.600358-05:00,"{""playerCount"":5}",2023-12-29T18:23:23.600358-05:00,Multi Player,2023-12-29T18:23:23.600358-05:00,{},2023-12-29T18:23:23.620434-05:00,true,2023-12-29T18:24:37.162509-05:00,01HJVY7E1XRTH2EYJF9SQ062VE,2023-12-29T18:23:23.59426-05:00,-136,2023-12-29T18:31:11.953311-05:00,"[""high"",""high"",15,9,500]",2023-12-29T18:25:41.432535-05:00,"[""low"",""high"",15,5,210]",2023-12-29T18:30:49.08807-05:00,"[""high"",""high"",10,9,410]",2023-12-29T18:29:27.429882-05:00,"[""low"",""high"",15,5,250]",2023-12-29T18:28:02.449219-05:00,true,2023-12-29T18:31:27.846368-05:00,"{""age"":"""",""gender"":"""",""advertise"":""No"",""feedback"":"""",""education"":""high-school""}",2023-12-29T18:31:27.84505-05:00,high,2023-12-29T18:30:51.194306-05:00,41,2023-12-29T18:30:51.194306-05:00,low,2023-12-29T18:30:51.194306-05:00,200,2023-12-29T18:30:51.194306-05:00,15,2023-12-29T18:30:51.194306-05:00,5,2023-12-29T18:30:51.194306-05:00,-136,2023-12-29T18:30:51.194306-05:00,210,2023-12-29T18:30:51.194306-05:00,142,2023-12-29T18:30:51.194306-05:00,true,2023-12-29T18:30:51.194306-05:00,,,,,,,,,,,,,,,,,,,,,,,,,,,,,,,,,,,,,,,,,,,,,,,,,,,,,,,,,,,,,,,,,,,,,,,,,,,,,,,,,,,,,,,,
01HJVY85PAT0NJQWH65PKVWF7X,game ended,2023-12-29T18:31:14.011096-05:00,player2,2023-12-29T18:23:47.786413-05:00,01HJVY6V5YCBCBRMNAY0SNZZQ8,2023-12-29T18:23:47.792802-05:00,"{""playerCount"":5}",2023-12-29T18:23:47.792802-05:00,Multi Player,2023-12-29T18:23:47.792802-05:00,"{""participantKey"":""1703892217470""}",2023-12-29T18:23:47.799801-05:00,true,2023-12-29T18:24:38.842839-05:00,01HJVY85NW1V7CAXYQGTWR064V,2023-12-29T18:23:47.786413-05:00,-444,2023-12-29T18:31:07.216748-05:00,"[""high"",""high"",10,9,250]",2023-12-29T18:25:56.873782-05:00,"[""low"",""high"",15,5,0]",2023-12-29T18:30:45.351054-05:00,"[""high"",""low"",15,9,240]",2023-12-29T18:29:32.308266-05:00,"[""high"",""low"",15,9,400]",2023-12-29T18:28:10.977291-05:00,true,2023-12-29T18:31:31.204561-05:00,"{""age"":"""",""gender"":"""",""advertise"":""No"",""feedback"":"""",""education"":""""}",2023-12-29T18:31:31.203255-05:00,high,2023-12-29T18:30:51.194306-05:00,28,2023-12-29T18:30:51.194306-05:00,low,2023-12-29T18:30:51.194306-05:00,280,2023-12-29T18:30:51.194306-05:00,15,2023-12-29T18:30:51.194306-05:00,5,2023-12-29T18:30:51.194306-05:00,-444,2023-12-29T18:30:51.194306-05:00,0,2023-12-29T18:30:51.194306-05:00,100,2023-12-29T18:30:51.194306-05:00,true,2023-12-29T18:30:51.194306-05:00,,,,,,,,,,,,,,,,,,,,,,,,,,,,,,,,,,,,,,,,,,,,,,,,,,,,,,,,,,,,,,,,,,,,,,,,,,,,,,,,,,,,,,,,
01HJVY8HW4ZYKDAPZ7F58Y3RNR,game ended,2023-12-29T18:31:14.011096-05:00,player3,2023-12-29T18:24:00.260549-05:00,01HJVY6V5YCBCBRMNAY0SNZZQ8,2023-12-29T18:24:00.267724-05:00,"{""playerCount"":5}",2023-12-29T18:24:00.267724-05:00,Multi Player,2023-12-29T18:24:00.267724-05:00,"{""participantKey"":""1703892229830""}",2023-12-29T18:24:00.274835-05:00,true,2023-12-29T18:24:43.365944-05:00,01HJVY8HVQKAP1ZX61GNHP83WC,2023-12-29T18:24:00.260549-05:00,74,2023-12-29T18:31:13.975612-05:00,"[""low"",""low"",10,5,500]",2023-12-29T18:26:29.909569-05:00,"[""high"",""high"",15,9,240]",2023-12-29T18:30:47.629536-05:00,"[""high"",""high"",10,9,500]",2023-12-29T18:29:44.281976-05:00,"[""low"",""low"",15,5,0]",2023-12-29T18:28:26.795307-05:00,true,2023-12-29T18:31:50.787233-05:00,"{""age"":"""",""gender"":"""",""advertise"":""Yes"",""feedback"":"""",""education"":""""}",2023-12-29T18:31:50.785995-05:00,high,2023-12-29T18:30:51.194306-05:00,70,2023-12-29T18:30:51.194306-05:00,high,2023-12-29T18:30:51.194306-05:00,180,2023-12-29T18:30:51.194306-05:00,15,2023-12-29T18:30:51.194306-05:00,9,2023-12-29T18:30:51.194306-05:00,74,2023-12-29T18:30:51.194306-05:00,240,2023-12-29T18:30:51.194306-05:00,148,2023-12-29T18:30:51.194306-05:00,false,2023-12-29T18:30:51.194306-05:00,,,,,,,,,,,,,,,,,,,,,,,,,,,,,,,,,,,,,,,,,,,,,,,,,,,,,,,,,,,,,,,,,,,,,,,,,,,,,,,,,,,,,,,,
01HJVY8WK69E1PXYHJAM79Y1NC,game ended,2023-12-29T18:31:14.011096-05:00,player4,2023-12-29T18:24:11.239013-05:00,01HJVY6V5YCBCBRMNAY0SNZZQ8,2023-12-29T18:24:11.248239-05:00,"{""playerCount"":5}",2023-12-29T18:24:11.248239-05:00,Multi Player,2023-12-29T18:24:11.248239-05:00,"{""participantKey"":""1703892244435""}",2023-12-29T18:24:11.253815-05:00,true,2023-12-29T18:24:42.009243-05:00,01HJVY8WJVA5EGVCR11FJGZ8A9,2023-12-29T18:24:11.239013-05:00,-264,2023-12-29T18:31:09.432614-05:00,"[""low"",""high"",15,5,100]",2023-12-29T18:26:23.44044-05:00,"[""high"",""high"",15,9,330]",2023-12-29T18:30:46.644854-05:00,"[""high"",""low"",15,9,290]",2023-12-29T18:29:38.228663-05:00,"[""high"",""low"",15,9,500]",2023-12-29T18:28:24.090069-05:00,true,2023-12-29T18:31:45.592678-05:00,"{""age"":"""",""gender"":"""",""advertise"":""Yes"",""feedback"":"""",""education"":""""}",2023-12-29T18:31:45.59144-05:00,high,2023-12-29T18:30:51.194306-05:00,95,2023-12-29T18:30:51.194306-05:00,high,2023-12-29T18:30:51.194306-05:00,240,2023-12-29T18:30:51.194306-05:00,15,2023-12-29T18:30:51.194306-05:00,9,2023-12-29T18:30:51.194306-05:00,-264,2023-12-29T18:30:51.194306-05:00,330,2023-12-29T18:30:51.194306-05:00,166,2023-12-29T18:30:51.194306-05:00,false,2023-12-29T18:30:51.194306-05:00,,,,,,,,,,,,,,,,,,,,,,,,,,,,,,,,,,,,,,,,,,,,,,,,,,,,,,,,,,,,,,,,,,,,,,,,,,,,,,,,,,,,,,,,
01HJVY9GMY0BAA8ZJBMWE92D57,game ended,2023-12-29T18:31:14.011096-05:00,player5,2023-12-29T18:24:31.774815-05:00,01HJVY6V5YCBCBRMNAY0SNZZQ8,2023-12-29T18:24:31.782784-05:00,"{""playerCount"":5}",2023-12-29T18:24:31.782784-05:00,Multi Player,2023-12-29T18:24:31.782784-05:00,"{""participantKey"":""1703892253298""}",2023-12-29T18:24:31.789324-05:00,true,2023-12-29T18:24:40.21988-05:00,01HJVY9GMJ7D9XHZ79JYFB4CYW,2023-12-29T18:24:31.774815-05:00,936,2023-12-29T18:31:04.96722-05:00,"[""low"",""high"",15,5,0]",2023-12-29T18:26:09.836485-05:00,"[""low"",""high"",15,5,0]",2023-12-29T18:30:51.182255-05:00,"[""high"",""high"",15,9,0]",2023-12-29T18:29:34.695528-05:00,"[""low"",""low"",15,5,200]",2023-12-29T18:28:18.804452-05:00,true,2023-12-29T18:31:34.969649-05:00,"{""age"":"""",""gender"":"""",""advertise"":""No"",""feedback"":"""",""education"":""""}",2023-12-29T18:31:34.968546-05:00,high,2023-12-29T18:30:51.194306-05:00,31,2023-12-29T18:30:51.194306-05:00,low,2023-12-29T18:30:51.194306-05:00,310,2023-12-29T18:30:51.194306-05:00,15,2023-12-29T18:30:51.194306-05:00,5,2023-12-29T18:30:51.194306-05:00,936,2023-12-29T18:30:51.194306-05:00,0,2023-12-29T18:30:51.194306-05:00,100,2023-12-29T18:30:51.194306-05:00,true,2023-12-29T18:30:51.194306-05:00,,,,,,,,,,,,,,,,,,,,,,,,,,,,,,,,,,,,,,,,,,,,,,,,,,,,,,,,,,,,,,,,,,,,,,,,,,,,,,,,,,,,,,,,
01HK3K2TZMCSWT2AANHF8QNDZ3,game ended,2024-01-01T17:46:24.820484-05:00,segaweg,2024-01-01T17:42:34.100892-05:00,01HK3K2QRRYS47BCEX4HP1PCYX,2024-01-01T17:42:34.109774-05:00,"{""playerCount"":1}",2024-01-01T17:42:34.109774-05:00,Solo,2024-01-01T17:42:34.109774-05:00,{},2024-01-01T17:42:34.134985-05:00,true,2024-01-01T17:42:34.492844-05:00,01HK3K2TZ8HW28BESZZDG5STEJ,2024-01-01T17:42:34.100892-05:00,792,2024-01-01T17:46:24.785044-05:00,"[""high"",""low"",10,9,230]",2024-01-01T17:42:42.233582-05:00,"[""high"",""high"",15,9,250]",2024-01-01T17:46:17.274357-05:00,"[""low"",""low"",10,5,100]",2024-01-01T17:45:57.130798-05:00,"[""high"",""low"",10,9,0]",2024-01-01T17:45:39.662422-05:00,true,2024-01-01T17:46:27.065051-05:00,"{""age"":"""",""gender"":"""",""advertise"":"""",""feedback"":"""",""education"":""""}",2024-01-01T17:46:27.057094-05:00,,,,,high,2024-01-01T17:46:06.275367-05:00,,,15,2024-01-01T17:46:07.811763-05:00,9,2024-01-01T17:46:06.279133-05:00,,,,,,,,,9,2024-01-01T17:42:42.249491-05:00,high,2024-01-01T17:45:39.676193-05:00,high,2024-01-01T17:46:17.291655-05:00,146,2024-01-01T17:42:42.249491-05:00,low,2024-01-01T17:45:39.676193-05:00,high,2024-01-01T17:46:17.291655-05:00,626,2024-01-01T17:46:17.291655-05:00,792,2024-01-01T17:46:17.291655-05:00,250,2024-01-01T17:46:17.291655-05:00,9,2024-01-01T17:46:17.291655-05:00,166,2024-01-01T17:45:57.146252-05:00,9,2024-01-01T17:45:39.676193-05:00,low,2024-01-01T17:45:57.146252-05:00,-205,2024-01-01T17:42:42.249491-05:00,false,2024-01-01T17:46:17.291655-05:00,low,2024-01-01T17:42:42.249491-05:00,146,2024-01-01T17:46:17.291655-05:00,15,2024-01-01T17:46:17.291655-05:00,31,2024-01-01T17:45:39.676193-05:00,0,2024-01-01T17:45:39.676193-05:00,31,2024-01-01T17:45:39.676193-05:00,true,2024-01-01T17:45:39.676193-05:00,false,2024-01-01T17:45:57.146252-05:00,high,2024-01-01T17:42:42.249491-05:00,230,2024-01-01T17:42:42.249491-05:00,5,2024-01-01T17:45:57.146252-05:00,10,2024-01-01T17:45:57.146252-05:00,120,2024-01-01T17:45:57.146252-05:00,-174,2024-01-01T17:45:39.676193-05:00,10,2024-01-01T17:45:39.676193-05:00,100,2024-01-01T17:45:39.676193-05:00,88,2024-01-01T17:45:57.146252-05:00,340,2024-01-01T17:45:57.146252-05:00,10,2024-01-01T17:42:42.249491-05:00,low,2024-01-01T17:45:57.146252-05:00,25,2024-01-01T17:42:42.249491-05:00,true,2024-01-01T17:42:42.249491-05:00,150,2024-01-01T17:46:17.291655-05:00,-205,2024-01-01T17:42:42.249491-05:00,100,2024-01-01T17:45:57.146252-05:00,,,,,,,,
01HK5KYQK20VAMF3GED00ESJRZ,game ended,2024-01-02T13:54:58.055541-05:00,adgrwe,2024-01-02T12:36:16.994261-05:00,01HK5KYMPF888WEV2JB9ZBN70P,2024-01-02T12:36:17.005176-05:00,"{""playerCount"":1}",2024-01-02T12:36:17.005176-05:00,Solo,2024-01-02T12:36:17.005176-05:00,{},2024-01-02T12:36:17.015148-05:00,true,2024-01-02T12:36:17.865953-05:00,01HK5KYQJJ1ESD79487QDPNRTY,2024-01-02T12:36:16.994261-05:00,-786,2024-01-02T13:54:58.028073-05:00,,,"[""high"",""high"",15,9,800]",2024-01-02T13:53:45.711947-05:00,"[""low"",""high"",15,5,800]",2024-01-02T13:52:30.209796-05:00,"[""high"",""high"",15,9,800]",2024-01-02T13:43:32.944493-05:00,,,,,,,,,high,2024-01-02T13:53:37.689824-05:00,,,15,2024-01-02T13:53:41.292305-05:00,9,2024-01-02T13:53:37.690691-05:00,,,,,,,,,,,high,2024-01-02T13:43:32.955846-05:00,high,2024-01-02T13:53:45.716843-05:00,,,high,2024-01-02T13:43:32.955846-05:00,high,2024-01-02T13:53:45.716843-05:00,-446,2024-01-02T13:53:45.716843-05:00,-786,2024-01-02T13:53:45.716843-05:00,800,2024-01-02T13:53:45.716843-05:00,9,2024-01-02T13:53:45.716843-05:00,-340,2024-01-02T13:52:30.21362-05:00,9,2024-01-02T13:43:32.955846-05:00,high,2024-01-02T13:52:30.21362-05:00,,,true,2024-01-02T13:53:45.716843-05:00,,,59,2024-01-02T13:53:45.716843-05:00,15,2024-01-02T13:53:45.716843-05:00,-170,2024-01-02T13:43:32.955846-05:00,800,2024-01-02T13:43:32.955846-05:00,105,2024-01-02T13:43:32.955846-05:00,false,2024-01-02T13:43:32.955846-05:00,false,2024-01-02T13:52:30.21362-05:00,,,,,5,2024-01-02T13:52:30.21362-05:00,15,2024-01-02T13:52:30.21362-05:00,2500,2024-01-02T13:52:30.21362-05:00,-170,2024-01-02T13:43:32.955846-05:00,15,2024-01-02T13:43:32.955846-05:00,366,2024-01-02T13:43:32.955846-05:00,63,2024-01-02T13:52:30.21362-05:00,-170,2024-01-02T13:52:30.21362-05:00,,,low,2024-01-02T13:52:30.21362-05:00,,,,,2500,2024-01-02T13:53:45.716843-05:00,,,800,2024-01-02T13:52:30.21362-05:00,,,,,,,,
01HK5RF16TBMWZXFCHWV07XVYT,game terminated,2024-01-02T13:57:31.653933-05:00,wawe,2024-01-02T13:55:05.434623-05:00,01HK5REXESMS9NMSMNS51AMF0F,2024-01-02T13:55:05.437473-05:00,"{""playerCount"":1}",2024-01-02T13:55:05.437473-05:00,Solo,2024-01-02T13:55:05.437473-05:00,{},2024-01-02T13:55:05.443141-05:00,true,2024-01-02T13:55:05.979963-05:00,01HK5RF16JF4T0GDQ80960GK37,2024-01-02T13:55:05.434623-05:00,21540,2024-01-02T13:57:08.45148-05:00,"[""low"",""high"",15,5,800]",2024-01-02T13:55:13.976078-05:00,"[""low"",""high"",15,5,800]",2024-01-02T13:56:36.595233-05:00,"[""low"",""high"",15,5,800]",2024-01-02T13:55:50.318778-05:00,"[""low"",""high"",15,5,800]",2024-01-02T13:55:36.18157-05:00,,,,,,,,,low,2024-01-02T13:56:28.47043-05:00,,,15,2024-01-02T13:56:31.322537-05:00,5,2024-01-02T13:56:28.471506-05:00,,,,,,,,,5,2024-01-02T13:55:13.985304-05:00,low,2024-01-02T13:55:36.187167-05:00,high,2024-01-02T13:56:36.60554-05:00,2500,2024-01-02T13:55:13.985304-05:00,high,2024-01-02T13:55:36.187167-05:00,low,2024-01-02T13:56:36.60554-05:00,6530,2024-01-02T13:56:36.60554-05:00,21540,2024-01-02T13:56:36.60554-05:00,800,2024-01-02T13:56:36.60554-05:00,5,2024-01-02T13:56:36.60554-05:00,15010,2024-01-02T13:55:50.329654-05:00,5,2024-01-02T13:55:36.187167-05:00,high,2024-01-02T13:55:50.329654-05:00,-300,2024-01-02T13:55:13.985304-05:00,false,2024-01-02T13:56:36.60554-05:00,high,2024-01-02T13:55:13.985304-05:00,733,2024-01-02T13:56:36.60554-05:00,15,2024-01-02T13:56:36.60554-05:00,12410,2024-01-02T13:55:36.187167-05:00,800,2024-01-02T13:55:36.187167-05:00,1321,2024-01-02T13:55:36.187167-05:00,false,2024-01-02T13:55:36.187167-05:00,false,2024-01-02T13:55:50.329654-05:00,low,2024-01-02T13:55:13.985304-05:00,800,2024-01-02T13:55:13.985304-05:00,5,2024-01-02T13:55:50.329654-05:00,15,2024-01-02T13:55:50.329654-05:00,2500,2024-01-02T13:55:50.329654-05:00,12110,2024-01-02T13:55:36.187167-05:00,15,2024-01-02T13:55:36.187167-05:00,2500,2024-01-02T13:55:36.187167-05:00,370,2024-01-02T13:55:50.329654-05:00,2900,2024-01-02T13:55:50.329654-05:00,15,2024-01-02T13:55:13.985304-05:00,low,2024-01-02T13:55:50.329654-05:00,50,2024-01-02T13:55:13.985304-05:00,false,2024-01-02T13:55:13.985304-05:00,2500,2024-01-02T13:56:36.60554-05:00,-300,2024-01-02T13:55:13.985304-05:00,800,2024-01-02T13:55:50.329654-05:00,,,,,,,,
01HK5RKN5G5TCMR81EP0SW9WXY,game terminated,2024-01-02T14:17:16.865646-05:00,awehaweh,2024-01-02T13:57:36.94493-05:00,01HK5RKBCVHSDPR8A9DGNDTVHT,2024-01-02T13:57:36.94815-05:00,"{""playerCount"":1}",2024-01-02T13:57:36.94815-05:00,Solo,2024-01-02T13:57:36.94815-05:00,{},2024-01-02T13:57:36.957288-05:00,true,2024-01-02T13:57:37.139728-05:00,01HK5RKN58WPZJXMMXGDK1A6JS,2024-01-02T13:57:36.94493-05:00,450,2024-01-02T14:15:14.546071-05:00,"[""low"",""high"",15,5,800]",2024-01-02T13:57:45.720761-05:00,,,,,"[""high"",""high"",15,9,800]",2024-01-02T13:58:05.533268-05:00,,,,,,,,,low,2024-01-02T14:15:15.248303-05:00,,,15,2024-01-02T14:15:17.500878-05:00,5,2024-01-02T14:15:15.249444-05:00,,,,,,,,,5,2024-01-02T13:57:45.726629-05:00,high,2024-01-02T13:58:05.54371-05:00,,,2500,2024-01-02T13:57:45.726629-05:00,high,2024-01-02T13:58:05.54371-05:00,,,,,,,,,,,,,9,2024-01-02T13:58:05.54371-05:00,,,-790,2024-01-02T13:57:45.726629-05:00,,,high,2024-01-02T13:57:45.726629-05:00,,,,,1240,2024-01-02T13:58:05.54371-05:00,800,2024-01-02T13:58:05.54371-05:00,340,2024-01-02T13:58:05.54371-05:00,true,2024-01-02T13:58:05.54371-05:00,,,low,2024-01-02T13:57:45.726629-05:00,800,2024-01-02T13:57:45.726629-05:00,,,,,,,450,2024-01-02T13:58:05.54371-05:00,15,2024-01-02T13:58:05.54371-05:00,2500,2024-01-02T13:58:05.54371-05:00,,,,,15,2024-01-02T13:57:45.726629-05:00,,,1,2024-01-02T13:57:45.726629-05:00,true,2024-01-02T13:57:45.726629-05:00,,,-790,2024-01-02T13:57:45.726629-05:00,,,,,,,,,,
01HK5SR6F7DVCT8DB54BT37FC3,game ended,2024-01-02T14:35:30.019368-05:00,awgwaeg,2024-01-02T14:17:34.311856-05:00,01HK5SQT1E7VDAQ1R1AFQCHWG0,2024-01-02T14:17:34.320878-05:00,"{""playerCount"":1,""warrantCost"":1000,""warrantValue"":2000}",2024-01-02T14:17:34.320878-05:00,Solo,2024-01-02T14:17:34.320878-05:00,{},2024-01-02T14:17:34.33881-05:00,true,2024-01-02T14:17:34.617616-05:00,01HK5SR6EY4AD5A2JEBNTVQ1FC,2024-01-02T14:17:34.311856-05:00,17154,2024-01-02T14:35:30.000461-05:00,"[""high"",""low"",15,9,0]",2024-01-02T14:25:02.762448-05:00,"[""low"",""low"",10,5,1000]",2024-01-02T14:35:26.874945-05:00,"[""low"",""high"",15,5,1000]",2024-01-02T14:35:14.212753-05:00,"[""low"",""high"",15,5,1000]",2024-01-02T14:33:11.807529-05:00,,,,,,,,,low,2024-01-02T14:35:21.898139-05:00,,,10,2024-01-02T14:35:23.588878-05:00,5,2024-01-02T14:35:21.899369-05:00,,,,,,,,,9,2024-01-02T14:25:02.773608-05:00,low,2024-01-02T14:33:11.814466-05:00,low,2024-01-02T14:35:26.882512-05:00,100,2024-01-02T14:25:02.773608-05:00,high,2024-01-02T14:33:11.814466-05:00,low,2024-01-02T14:35:26.882512-05:00,3910,2024-01-02T14:35:26.882512-05:00,17154,2024-01-02T14:35:26.882512-05:00,1000,2024-01-02T14:35:26.882512-05:00,5,2024-01-02T14:35:26.882512-05:00,13244,2024-01-02T14:35:14.220194-05:00,5,2024-01-02T14:33:11.814466-05:00,high,2024-01-02T14:35:14.220194-05:00,54,2024-01-02T14:25:02.773608-05:00,false,2024-01-02T14:35:26.882512-05:00,low,2024-01-02T14:25:02.773608-05:00,982,2024-01-02T14:35:26.882512-05:00,10,2024-01-02T14:35:26.882512-05:00,7560,2024-01-02T14:33:11.814466-05:00,1000,2024-01-02T14:33:11.814466-05:00,856,2024-01-02T14:33:11.814466-05:00,false,2024-01-02T14:33:11.814466-05:00,false,2024-01-02T14:35:14.220194-05:00,high,2024-01-02T14:25:02.773608-05:00,0,2024-01-02T14:25:02.773608-05:00,5,2024-01-02T14:35:14.220194-05:00,15,2024-01-02T14:35:14.220194-05:00,2000,2024-01-02T14:35:14.220194-05:00,7614,2024-01-02T14:33:11.814466-05:00,15,2024-01-02T14:33:11.814466-05:00,2000,2024-01-02T14:33:11.814466-05:00,663,2024-01-02T14:35:14.220194-05:00,5630,2024-01-02T14:35:14.220194-05:00,15,2024-01-02T14:25:02.773608-05:00,low,2024-01-02T14:35:14.220194-05:00,9,2024-01-02T14:25:02.773608-05:00,false,2024-01-02T14:25:02.773608-05:00,2000,2024-01-02T14:35:26.882512-05:00,54,2024-01-02T14:25:02.773608-05:00,1000,2024-01-02T14:35:14.220194-05:00,,,,,,,,
01HK5TSJRWXD0CYA72WH5M2A2D,game terminated,2024-01-02T14:36:57.876147-05:00,sswhaw,2024-01-02T14:35:48.252871-05:00,01HK5TSFN8T9603N90F5D3NJV8,2024-01-02T14:35:48.255906-05:00,"{""playerCount"":1,""warrantCost"":1000,""warrantValue"":2000}",2024-01-02T14:35:48.255906-05:00,Solo,2024-01-02T14:35:48.255906-05:00,{},2024-01-02T14:35:48.261162-05:00,true,2024-01-02T14:35:49.133208-05:00,01HK5TSJRQH9PYJHCEC62PQ73Q,2024-01-02T14:35:48.252871-05:00,20110,2024-01-02T14:36:40.363549-05:00,"[""low"",""high"",15,5,1000]",2024-01-02T14:35:58.218909-05:00,,,,,"[""low"",""high"",15,5,1000]",2024-01-02T14:36:08.169007-05:00,,,,,,,,,low,2024-01-02T14:36:02.640109-05:00,,,15,2024-01-02T14:36:04.041307-05:00,5,2024-01-02T14:36:02.641297-05:00,,,,,,,,,5,2024-01-02T14:35:58.226236-05:00,low,2024-01-02T14:36:08.174398-05:00,,,2000,2024-01-02T14:35:58.226236-05:00,high,2024-01-02T14:36:08.174398-05:00,,,,,,,,,,,,,5,2024-01-02T14:36:08.174398-05:00,,,10140,2024-01-02T14:35:58.226236-05:00,,,high,2024-01-02T14:35:58.226236-05:00,,,,,9970,2024-01-02T14:36:08.174398-05:00,1000,2024-01-02T14:36:08.174398-05:00,1097,2024-01-02T14:36:08.174398-05:00,false,2024-01-02T14:36:08.174398-05:00,,,low,2024-01-02T14:35:58.226236-05:00,1000,2024-01-02T14:35:58.226236-05:00,,,,,,,20110,2024-01-02T14:36:08.174398-05:00,15,2024-01-02T14:36:08.174398-05:00,2000,2024-01-02T14:36:08.174398-05:00,,,,,15,2024-01-02T14:35:58.226236-05:00,,,1114,2024-01-02T14:35:58.226236-05:00,false,2024-01-02T14:35:58.226236-05:00,,,10140,2024-01-02T14:35:58.226236-05:00,,,,,,,,,,
01HK5TX5XFH9KKK40GG4VKK7V3,game terminated,2024-01-02T14:38:08.709974-05:00,aweawh,2024-01-02T14:37:46.159712-05:00,01HK5TVQPNPNMQQEBVH0D11WYB,2024-01-02T14:37:46.172745-05:00,"{""playerCount"":1,""warrantCost"":1000,""warrantValue"":2000}",2024-01-02T14:37:46.172745-05:00,Solo,2024-01-02T14:37:46.172745-05:00,{},2024-01-02T14:37:46.179373-05:00,true,2024-01-02T14:37:46.702122-05:00,01HK5TX5WSTW59JRE62NW7AJ9W,2024-01-02T14:37:46.159712-05:00,,,"[""low"",""high"",15,5,1000]",2024-01-02T14:37:54.415752-05:00,,,,,,,,,,,,,,,low,2024-01-02T14:37:47.777733-05:00,,,15,2024-01-02T14:37:50.520571-05:00,5,2024-01-02T14:37:47.779113-05:00,,,,,,,,,5,2024-01-02T14:37:54.42367-05:00,,,,,2000,2024-01-02T14:37:54.42367-05:00,,,,,,,,,,,,,,,,,,,8610,2024-01-02T14:37:54.42367-05:00,,,high,2024-01-02T14:37:54.42367-05:00,,,,,,,,,,,,,,,low,2024-01-02T14:37:54.42367-05:00,1000,2024-01-02T14:37:54.42367-05:00,,,,,,,,,,,,,,,,,15,2024-01-02T14:37:54.42367-05:00,,,961,2024-01-02T14:37:54.42367-05:00,false,2024-01-02T14:37:54.42367-05:00,,,8610,2024-01-02T14:37:54.42367-05:00,,,,,,,,,,
01HK5TYBBKQT85SM9J3GD388WW,,,awehawe,2024-01-02T14:38:24.499399-05:00,01HK5TY0PQXGB53413C6P1Z0DK,2024-01-02T14:38:24.503537-05:00,"{""challengeProbability"":0.7,""playerCount"":1,""warrantCost"":1000,""warrantValue"":2000}",2024-01-02T14:38:24.503537-05:00,Solo,2024-01-02T14:38:24.503537-05:00,{},2024-01-02T14:38:24.508124-05:00,true,2024-01-02T14:38:24.877675-05:00,01HK5TYBBB0TDS421RG8EQVTM4,2024-01-02T14:38:24.499399-05:00,2080,2024-01-02T14:39:50.269477-05:00,"[""low"",""high"",15,5,1000]",2024-01-02T14:38:31.634328-05:00,,,"[""low"",""high"",15,5,1000]",2024-01-02T14:38:59.657745-05:00,"[""low"",""high"",15,5,1000]",2024-01-02T14:38:46.672761-05:00,,,,,,,,,low,2024-01-02T14:38:54.972109-05:00,,,15,2024-01-02T14:38:56.164409-05:00,5,2024-01-02T14:38:54.973645-05:00,,,,,,,,,5,2024-01-02T14:38:31.642997-05:00,low,2024-01-02T14:38:46.681024-05:00,,,2000,2024-01-02T14:38:31.642997-05:00,high,2024-01-02T14:38:46.681024-05:00,,,,,,,,,,,2080,2024-01-02T14:38:59.666071-05:00,5,2024-01-02T14:38:46.681024-05:00,high,2024-01-02T14:38:59.666071-05:00,1290,2024-01-02T14:38:31.642997-05:00,,,high,2024-01-02T14:38:31.642997-05:00,,,,,-620,2024-01-02T14:38:46.681024-05:00,1000,2024-01-02T14:38:46.681024-05:00,38,2024-01-02T14:38:46.681024-05:00,true,2024-01-02T14:38:46.681024-05:00,false,2024-01-02T14:38:59.666071-05:00,low,2024-01-02T14:38:31.642997-05:00,1000,2024-01-02T14:38:31.642997-05:00,5,2024-01-02T14:38:59.666071-05:00,15,2024-01-02T14:38:59.666071-05:00,2000,2024-01-02T14:38:59.666071-05:00,670,2024-01-02T14:38:46.681024-05:00,15,2024-01-02T14:38:46.681024-05:00,2000,2024-01-02T14:38:46.681024-05:00,241,2024-01-02T14:38:59.666071-05:00,1410,2024-01-02T14:38:59.666071-05:00,15,2024-01-02T14:38:31.642997-05:00,low,2024-01-02T14:38:59.666071-05:00,229,2024-01-02T14:38:31.642997-05:00,false,2024-01-02T14:38:31.642997-05:00,,,1290,2024-01-02T14:38:31.642997-05:00,1000,2024-01-02T14:38:59.666071-05:00,,,,,,,,
01HK5V3N61AQ6PN3KYC69D5QEX,game ended,2024-01-02T14:42:16.469602-05:00,sdgjh,2024-01-02T14:41:18.401442-05:00,01HK5V3D4MY5NGK9BYB3VY1JXW,2024-01-02T14:41:18.404816-05:00,"{""challengeProbability"":0.7,""playerCount"":1,""warrantCost"":1000,""warrantValue"":2000}",2024-01-02T14:41:18.404816-05:00,Solo,2024-01-02T14:41:18.404816-05:00,{},2024-01-02T14:41:18.40986-05:00,true,2024-01-02T14:41:19.5381-05:00,01HK5V3N5QR29N1W7WMHA0H0AE,2024-01-02T14:41:18.401442-05:00,,,"[""low"",""high"",15,5,1000]",2024-01-02T14:41:27.093998-05:00,"[""low"",""high"",15,5,1000]",2024-01-02T14:42:13.370915-05:00,"[""low"",""high"",15,5,1000]",2024-01-02T14:41:57.780239-05:00,"[""low"",""high"",15,5,1000]",2024-01-02T14:41:45.476566-05:00,,,,,,,,,low,2024-01-02T14:42:08.397999-05:00,,,15,2024-01-02T14:42:09.757439-05:00,5,2024-01-02T14:42:08.399446-05:00,,,,,,,,,5,2024-01-02T14:41:27.102712-05:00,low,2024-01-02T14:41:45.486027-05:00,high,2024-01-02T14:42:13.379742-05:00,2000,2024-01-02T14:41:27.102712-05:00,high,2024-01-02T14:41:45.486027-05:00,low,2024-01-02T14:42:13.379742-05:00,-170,2024-01-02T14:42:13.379742-05:00,-170,2024-01-02T14:42:13.379742-05:00,1000,2024-01-02T14:42:13.379742-05:00,5,2024-01-02T14:42:13.379742-05:00,10280,2024-01-02T14:41:57.787985-05:00,5,2024-01-02T14:41:45.486027-05:00,high,2024-01-02T14:41:57.787985-05:00,-470,2024-01-02T14:41:27.102712-05:00,true,2024-01-02T14:42:13.379742-05:00,high,2024-01-02T14:41:27.102712-05:00,83,2024-01-02T14:42:13.379742-05:00,15,2024-01-02T14:42:13.379742-05:00,-960,2024-01-02T14:41:45.486027-05:00,1000,2024-01-02T14:41:45.486027-05:00,4,2024-01-02T14:41:45.486027-05:00,true,2024-01-02T14:41:45.486027-05:00,false,2024-01-02T14:41:57.787985-05:00,low,2024-01-02T14:41:27.102712-05:00,1000,2024-01-02T14:41:27.102712-05:00,5,2024-01-02T14:41:57.787985-05:00,15,2024-01-02T14:41:57.787985-05:00,2000,2024-01-02T14:41:57.787985-05:00,-960,2024-01-02T14:41:45.486027-05:00,15,2024-01-02T14:41:45.486027-05:00,2000,2024-01-02T14:41:45.486027-05:00,1128,2024-01-02T14:41:57.787985-05:00,10280,2024-01-02T14:41:57.787985-05:00,15,2024-01-02T14:41:27.102712-05:00,low,2024-01-02T14:41:57.787985-05:00,53,2024-01-02T14:41:27.102712-05:00,true,2024-01-02T14:41:27.102712-05:00,2000,2024-01-02T14:42:13.379742-05:00,-470,2024-01-02T14:41:27.102712-05:00,1000,2024-01-02T14:41:57.787985-05:00,-170,2024-01-02T14:42:16.447648-05:00,-470,2024-01-02T14:41:39.185474-05:00,-960,2024-01-02T14:41:52.150937-05:00,10280,2024-01-02T14:42:07.415661-05:00
01HK5VDW42HB4EKCG7CAEAX96B,game ended,2024-01-02T14:47:59.459818-05:00,aweh,2024-01-02T14:46:53.186717-05:00,01HK5VDKRE67HDQQ0H9BJ2JGGD,2024-01-02T14:46:53.190405-05:00,"{""challengeProbability"":0.7,""playerCount"":1,""warrantCost"":1000,""warrantValue"":2000}",2024-01-02T14:46:53.190405-05:00,Solo,2024-01-02T14:46:53.190405-05:00,{},2024-01-02T14:46:53.196299-05:00,true,2024-01-02T14:46:54.0551-05:00,01HK5VDW3R6AEQW39BFY8RAYY9,2024-01-02T14:46:53.186717-05:00,,,"[""low"",""high"",15,5,1000]",2024-01-02T14:47:01.706607-05:00,"[""low"",""high"",15,5,1000]",2024-01-02T14:47:56.608005-05:00,"[""low"",""high"",15,5,1000]",2024-01-02T14:47:48.525232-05:00,"[""low"",""high"",15,5,1000]",2024-01-02T14:47:36.939023-05:00,,,,,,,,,low,2024-01-02T14:47:51.98692-05:00,,,15,2024-01-02T14:47:53.369733-05:00,5,2024-01-02T14:47:51.988161-05:00,-2600,2024-01-02T14:47:56.614711-05:00,,,,,,,5,2024-01-02T14:47:01.714891-05:00,low,2024-01-02T14:47:36.945935-05:00,high,2024-01-02T14:47:56.614711-05:00,2000,2024-01-02T14:47:01.714891-05:00,high,2024-01-02T14:47:36.945935-05:00,low,2024-01-02T14:47:56.614711-05:00,-840,2024-01-02T14:47:56.614711-05:00,,,1000,2024-01-02T14:47:56.614711-05:00,5,2024-01-02T14:47:56.614711-05:00,,,5,2024-01-02T14:47:36.945935-05:00,high,2024-01-02T14:47:48.534595-05:00,,,true,2024-01-02T14:47:56.614711-05:00,high,2024-01-02T14:47:01.714891-05:00,16,2024-01-02T14:47:56.614711-05:00,15,2024-01-02T14:47:56.614711-05:00,-440,2024-01-02T14:47:36.945935-05:00,1000,2024-01-02T14:47:36.945935-05:00,56,2024-01-02T14:47:36.945935-05:00,true,2024-01-02T14:47:36.945935-05:00,true,2024-01-02T14:47:48.534595-05:00,low,2024-01-02T14:47:01.714891-05:00,1000,2024-01-02T14:47:01.714891-05:00,5,2024-01-02T14:47:48.534595-05:00,15,2024-01-02T14:47:48.534595-05:00,2000,2024-01-02T14:47:48.534595-05:00,,,15,2024-01-02T14:47:36.945935-05:00,2000,2024-01-02T14:47:36.945935-05:00,42,2024-01-02T14:47:48.534595-05:00,-580,2024-01-02T14:47:48.534595-05:00,15,2024-01-02T14:47:01.714891-05:00,low,2024-01-02T14:47:48.534595-05:00,26,2024-01-02T14:47:01.714891-05:00,true,2024-01-02T14:47:01.714891-05:00,2000,2024-01-02T14:47:56.614711-05:00,-740,2024-01-02T14:47:01.714891-05:00,1000,2024-01-02T14:47:48.534595-05:00,-2600,2024-01-02T14:47:59.440756-05:00,-740,2024-01-02T14:47:30.522641-05:00,-1180,2024-01-02T14:47:41.905554-05:00,-1760,2024-01-02T14:47:51.322836-05:00
01HK5Z6Z4GSTSQREJJYBJSMFNP,game ended,2024-01-02T17:27:07.179426-05:00,aeawegawe,2024-01-02T15:53:01.200794-05:00,01HK5Z6RCSAEKQAXV0FXGN5W2C,2024-01-02T15:53:01.20768-05:00,"{""challengeProbability"":0.7,""playerCount"":1,""warrantCost"":1000,""warrantValue"":2000}",2024-01-02T15:53:01.20768-05:00,Solo,2024-01-02T15:53:01.20768-05:00,{},2024-01-02T15:53:01.215324-05:00,true,2024-01-02T15:53:01.750499-05:00,01HK5Z6Z42FBPGP3YS108ZD0Y8,2024-01-02T15:53:01.200794-05:00,,,"[""high"",""high"",15,9,1000]",2024-01-02T17:01:26.633517-05:00,"[""high"",""high"",15,9,1000]",2024-01-02T17:27:03.542245-05:00,"[""low"",""high"",10,5,1000]",2024-01-02T17:02:32.678879-05:00,"[""high"",""high"",15,9,1000]",2024-01-02T17:01:36.885604-05:00,,,,,,,,,high,2024-01-02T17:26:58.409585-05:00,,,15,2024-01-02T17:26:59.514121-05:00,9,2024-01-02T17:26:58.413135-05:00,1720,2024-01-02T17:27:03.548992-05:00,,,,,,,9,2024-01-02T17:01:26.655731-05:00,high,2024-01-02T17:01:36.897512-05:00,high,2024-01-02T17:27:03.548992-05:00,2000,2024-01-02T17:01:26.655731-05:00,high,2024-01-02T17:01:36.897512-05:00,high,2024-01-02T17:27:03.548992-05:00,2030,2024-01-02T17:27:03.548992-05:00,,,1000,2024-01-02T17:27:03.548992-05:00,9,2024-01-02T17:27:03.548992-05:00,,,9,2024-01-02T17:01:36.897512-05:00,high,2024-01-02T17:02:32.685073-05:00,,,true,2024-01-02T17:27:03.548992-05:00,high,2024-01-02T17:01:26.655731-05:00,505,2024-01-02T17:27:03.548992-05:00,15,2024-01-02T17:27:03.548992-05:00,860,2024-01-02T17:01:36.897512-05:00,1000,2024-01-02T17:01:36.897512-05:00,310,2024-01-02T17:01:36.897512-05:00,true,2024-01-02T17:01:36.897512-05:00,true,2024-01-02T17:02:32.685073-05:00,high,2024-01-02T17:01:26.655731-05:00,1000,2024-01-02T17:01:26.655731-05:00,5,2024-01-02T17:02:32.685073-05:00,10,2024-01-02T17:02:32.685073-05:00,2000,2024-01-02T17:02:32.685073-05:00,,,15,2024-01-02T17:01:36.897512-05:00,2000,2024-01-02T17:01:36.897512-05:00,64,2024-01-02T17:02:32.685073-05:00,-680,2024-01-02T17:02:32.685073-05:00,15,2024-01-02T17:01:26.655731-05:00,low,2024-01-02T17:02:32.685073-05:00,85,2024-01-02T17:01:26.655731-05:00,true,2024-01-02T17:01:26.655731-05:00,2000,2024-01-02T17:27:03.548992-05:00,-490,2024-01-02T17:01:26.655731-05:00,1000,2024-01-02T17:02:32.685073-05:00,1720,2024-01-02T17:27:07.160028-05:00,-490,2024-01-02T17:01:28.669991-05:00,370,2024-01-02T17:01:40.957147-05:00,-310,2024-01-02T17:03:39.03266-05:00
01HK64MY2TE5GRNS6FZ8RQMYWJ,,,asegawe,2024-01-02T17:28:01.754826-05:00,01HK64MTRX064E8RQ79ZM2Y2SS,2024-01-02T17:28:01.758025-05:00,"{""challengeProbability"":0.7,""playerCount"":1,""warrantCost"":1000,""warrantValue"":2000}",2024-01-02T17:28:01.758025-05:00,Solo,2024-01-02T17:28:01.758025-05:00,{},2024-01-02T17:28:01.764232-05:00,true,2024-01-02T17:28:02.312658-05:00,01HK64MY2NJ471EGKSHC96C5N2,2024-01-02T17:28:01.754826-05:00,,,,,,,,,,,,,,,,,,,low,2024-01-02T17:28:03.896198-05:00,,,15,2024-01-02T17:28:05.829336-05:00,5,2024-01-02T17:28:03.897605-05:00,,,,,,,,,,,,,,,,,,,,,,,,,,,,,,,,,,,,,,,,,,,,,,,,,,,,,,,,,,,,,,,,,,,,,,,,,,,,,,,,,,,,,,,,,,,,,,,,
01HK65MAXS2X8EJVVDB2JG4346,game ended,2024-01-02T18:04:42.493775-05:00,twoplayeruser1,2024-01-02T17:45:10.713561-05:00,01HK65KZ50WNF79KFXA8SZ8FS3,2024-01-02T17:45:10.727188-05:00,"{""challengeProbability"":0.7,""playerCount"":2,""warrantCost"":1000,""warrantValue"":2000}",2024-01-02T17:45:10.727188-05:00,Two Players,2024-01-02T17:45:10.727188-05:00,{},2024-01-02T17:45:10.735263-05:00,true,2024-01-02T17:45:23.465477-05:00,01HK65MAXDHSCATB8KWK60W4FE,2024-01-02T17:45:10.713561-05:00,,,"[null,""low"",null,null,1000]",2024-01-02T17:46:19.454793-05:00,"[""high"",""high"",15,9,1000]",2024-01-02T18:02:28.155292-05:00,"[null,""high"",null,null,1000]",2024-01-02T17:59:52.401656-05:00,"[null,""low"",null,null,1000]",2024-01-02T17:53:49.506714-05:00,,,,,,,,,,,,,,,,,-10,2024-01-02T18:02:31.76293-05:00,,,,,,,,2024-01-02T17:46:26.437343-05:00,,2024-01-02T17:53:49.536467-05:00,high,2024-01-02T18:02:31.76293-05:00,2000,2024-01-02T17:46:26.437343-05:00,low,2024-01-02T17:53:49.536467-05:00,high,2024-01-02T18:02:31.76293-05:00,2990,2024-01-02T18:02:31.76293-05:00,,,1000,2024-01-02T18:02:31.76293-05:00,9,2024-01-02T18:02:31.76293-05:00,,,,2024-01-02T17:53:49.536467-05:00,high,2024-01-02T17:59:52.422708-05:00,,,true,2024-01-02T18:02:31.76293-05:00,low,2024-01-02T17:46:26.437343-05:00,665,2024-01-02T18:02:31.76293-05:00,15,2024-01-02T18:02:31.76293-05:00,-1000,2024-01-02T17:53:49.536467-05:00,1000,2024-01-02T17:53:49.536467-05:00,66,2024-01-02T17:53:49.536467-05:00,true,2024-01-02T17:53:49.536467-05:00,true,2024-01-02T17:59:52.422708-05:00,,2024-01-02T17:46:26.437343-05:00,1000,2024-01-02T17:46:26.437343-05:00,,2024-01-02T17:59:52.422708-05:00,,2024-01-02T17:59:52.422708-05:00,2000,2024-01-02T17:59:52.422708-05:00,,,,2024-01-02T17:53:49.536467-05:00,2000,2024-01-02T17:53:49.536467-05:00,83,2024-01-02T17:59:52.422708-05:00,-1000,2024-01-02T17:59:52.422708-05:00,,2024-01-02T17:46:26.437343-05:00,,2024-01-02T17:59:52.422708-05:00,41,2024-01-02T17:46:26.437343-05:00,true,2024-01-02T17:46:26.437343-05:00,2000,2024-01-02T18:02:31.76293-05:00,-1000,2024-01-02T17:46:26.437343-05:00,1000,2024-01-02T17:59:52.422708-05:00,-10,2024-01-02T18:04:39.31589-05:00,-1000,2024-01-02T17:46:37.130182-05:00,-2000,2024-01-02T17:59:29.616313-05:00,-3000,2024-01-02T18:02:15.130999-05:00
01HK65MXZSDKKA6TFEPWX4XY9W,game ended,2024-01-02T18:04:42.493775-05:00,twoplayeruser2,2024-01-02T17:45:30.23362-05:00,01HK65KZ50WNF79KFXA8SZ8FS3,2024-01-02T17:45:30.249391-05:00,"{""challengeProbability"":0.7,""playerCount"":2,""warrantCost"":1000,""warrantValue"":2000}",2024-01-02T17:45:30.249391-05:00,Two Players,2024-01-02T17:45:30.249391-05:00,"{""participantKey"":""1704235527622""}",2024-01-02T17:45:30.259806-05:00,true,2024-01-02T17:45:30.659315-05:00,01HK65MXZEZ4FREE20VZVGWDJH,2024-01-02T17:45:30.23362-05:00,,,"[null,""high"",null,null,1000]",2024-01-02T17:46:26.412408-05:00,"[""low"",""low"",10,5,1000]",2024-01-02T18:02:31.74734-05:00,"[null,""high"",null,null,1000]",2024-01-02T17:59:47.267804-05:00,"[null,""high"",null,null,1000]",2024-01-02T17:53:44.762561-05:00,,,,,,,,,,,,,,,,,3210,2024-01-02T18:02:31.76293-05:00,,,,,,,,2024-01-02T17:46:26.437343-05:00,,2024-01-02T17:53:49.536467-05:00,low,2024-01-02T18:02:31.76293-05:00,2000,2024-01-02T17:46:26.437343-05:00,high,2024-01-02T17:53:49.536467-05:00,low,2024-01-02T18:02:31.76293-05:00,6210,2024-01-02T18:02:31.76293-05:00,,,1000,2024-01-02T18:02:31.76293-05:00,5,2024-01-02T18:02:31.76293-05:00,,,,2024-01-02T17:53:49.536467-05:00,high,2024-01-02T17:59:52.422708-05:00,,,true,2024-01-02T18:02:31.76293-05:00,high,2024-01-02T17:46:26.437343-05:00,1442,2024-01-02T18:02:31.76293-05:00,10,2024-01-02T18:02:31.76293-05:00,-1000,2024-01-02T17:53:49.536467-05:00,1000,2024-01-02T17:53:49.536467-05:00,948,2024-01-02T17:53:49.536467-05:00,false,2024-01-02T17:53:49.536467-05:00,false,2024-01-02T17:59:52.422708-05:00,,2024-01-02T17:46:26.437343-05:00,1000,2024-01-02T17:46:26.437343-05:00,,2024-01-02T17:59:52.422708-05:00,,2024-01-02T17:59:52.422708-05:00,2000,2024-01-02T17:59:52.422708-05:00,,,,2024-01-02T17:53:49.536467-05:00,2000,2024-01-02T17:53:49.536467-05:00,1773,2024-01-02T17:59:52.422708-05:00,-1000,2024-01-02T17:59:52.422708-05:00,,2024-01-02T17:46:26.437343-05:00,,2024-01-02T17:59:52.422708-05:00,1743,2024-01-02T17:46:26.437343-05:00,false,2024-01-02T17:46:26.437343-05:00,2000,2024-01-02T18:02:31.76293-05:00,-1000,2024-01-02T17:46:26.437343-05:00,1000,2024-01-02T17:59:52.422708-05:00,3210,2024-01-02T18:04:42.451209-05:00,-1000,2024-01-02T17:46:39.25076-05:00,-2000,2024-01-02T17:59:32.663174-05:00,-3000,2024-01-02T18:02:16.976897-05:00
01HK67NK6Q1P1QENCWR0HVZT2T,game ended,2024-01-02T18:22:45.901303-05:00,lowPlayer,2024-01-02T18:20:49.111254-05:00,01HK67N9E41SK2SZ0ZGH2Z8Q7H,2024-01-02T18:20:49.122436-05:00,"{""challengeProbability"":0.7,""playerCount"":2,""warrantCost"":1000,""warrantValue"":2000}",2024-01-02T18:20:49.122436-05:00,Two Players,2024-01-02T18:20:49.122436-05:00,{},2024-01-02T18:20:49.128693-05:00,true,2024-01-02T18:20:54.73501-05:00,01HK67NK6ECBG09C62TW8CA9E1,2024-01-02T18:20:49.111254-05:00,,,"[""low"",""low"",10,5,1000]",2024-01-02T18:21:07.404298-05:00,"[""low"",""low"",10,5,1000]",2024-01-02T18:22:33.845864-05:00,"[""low"",""low"",10,5,1000]",2024-01-02T18:22:13.916934-05:00,"[""low"",""low"",10,5,1000]",2024-01-02T18:21:29.982279-05:00,true,2024-01-02T18:22:47.114277-05:00,"{""age"":"""",""gender"":"""",""advertise"":"""",""feedback"":"""",""education"":""""}",2024-01-02T18:22:47.110714-05:00,,,,,,,,,,,,,22840,2024-01-02T18:22:36.368897-05:00,,,,,,,5,2024-01-02T18:21:09.944988-05:00,low,2024-01-02T18:21:33.559433-05:00,low,2024-01-02T18:22:36.368897-05:00,2000,2024-01-02T18:21:09.944988-05:00,low,2024-01-02T18:21:33.559433-05:00,low,2024-01-02T18:22:36.368897-05:00,4450,2024-01-02T18:22:36.368897-05:00,,,1000,2024-01-02T18:22:36.368897-05:00,5,2024-01-02T18:22:36.368897-05:00,,,5,2024-01-02T18:21:33.559433-05:00,low,2024-01-02T18:22:13.937478-05:00,,,true,2024-01-02T18:22:36.368897-05:00,low,2024-01-02T18:21:09.944988-05:00,1090,2024-01-02T18:22:36.368897-05:00,10,2024-01-02T18:22:36.368897-05:00,8335,2024-01-02T18:21:33.559433-05:00,1000,2024-01-02T18:21:33.559433-05:00,1867,2024-01-02T18:21:33.559433-05:00,false,2024-01-02T18:21:33.559433-05:00,true,2024-01-02T18:22:13.937478-05:00,low,2024-01-02T18:21:09.944988-05:00,1000,2024-01-02T18:21:09.944988-05:00,5,2024-01-02T18:22:13.937478-05:00,10,2024-01-02T18:22:13.937478-05:00,2000,2024-01-02T18:22:13.937478-05:00,,,10,2024-01-02T18:21:33.559433-05:00,2000,2024-01-02T18:21:33.559433-05:00,610,2024-01-02T18:22:13.937478-05:00,2050,2024-01-02T18:22:13.937478-05:00,10,2024-01-02T18:21:09.944988-05:00,low,2024-01-02T18:22:13.937478-05:00,1801,2024-01-02T18:21:09.944988-05:00,false,2024-01-02T18:21:09.944988-05:00,2000,2024-01-02T18:22:36.368897-05:00,8005,2024-01-02T18:21:09.944988-05:00,1000,2024-01-02T18:22:13.937478-05:00,22840,2024-01-02T18:22:44.026562-05:00,8005,2024-01-02T18:21:15.73868-05:00,16340,2024-01-02T18:21:56.528611-05:00,18390,2024-01-02T18:22:20.276972-05:00
01HK67NQC06GBVV92BK6VK171B,game ended,2024-01-02T18:22:45.901303-05:00,highPlayer,2024-01-02T18:20:53.376435-05:00,01HK67N9E41SK2SZ0ZGH2Z8Q7H,2024-01-02T18:20:53.382952-05:00,"{""challengeProbability"":0.7,""playerCount"":2,""warrantCost"":1000,""warrantValue"":2000}",2024-01-02T18:20:53.382952-05:00,Two Players,2024-01-02T18:20:53.382952-05:00,"{""participantKey"":""1704235527622""}",2024-01-02T18:20:53.389264-05:00,true,2024-01-02T18:20:56.566856-05:00,01HK67NQBTBBWP1KTDNFQZVMRN,2024-01-02T18:20:53.376435-05:00,,,"[""high"",""high"",15,9,1000]",2024-01-02T18:21:09.924484-05:00,"[""low"",""low"",10,5,1000]",2024-01-02T18:22:36.347142-05:00,"[""low"",""high"",15,5,1000]",2024-01-02T18:22:09.883249-05:00,"[""low"",""high"",15,5,0]",2024-01-02T18:21:33.541784-05:00,true,2024-01-02T18:22:48.126616-05:00,"{""age"":"""",""gender"":"""",""advertise"":"""",""feedback"":"""",""education"":""""}",2024-01-02T18:22:48.123548-05:00,,,,,,,,,,,,,7104,2024-01-02T18:22:36.368897-05:00,,,,,,,9,2024-01-02T18:21:09.944988-05:00,low,2024-01-02T18:21:33.559433-05:00,low,2024-01-02T18:22:36.368897-05:00,2000,2024-01-02T18:21:09.944988-05:00,high,2024-01-02T18:21:33.559433-05:00,low,2024-01-02T18:22:36.368897-05:00,840,2024-01-02T18:22:36.368897-05:00,,,1000,2024-01-02T18:22:36.368897-05:00,5,2024-01-02T18:22:36.368897-05:00,,,5,2024-01-02T18:21:33.559433-05:00,high,2024-01-02T18:22:13.937478-05:00,,,true,2024-01-02T18:22:36.368897-05:00,high,2024-01-02T18:21:09.944988-05:00,368,2024-01-02T18:22:36.368897-05:00,10,2024-01-02T18:22:36.368897-05:00,590,2024-01-02T18:21:33.559433-05:00,0,2024-01-02T18:21:33.559433-05:00,59,2024-01-02T18:21:33.559433-05:00,false,2024-01-02T18:21:33.559433-05:00,true,2024-01-02T18:22:13.937478-05:00,high,2024-01-02T18:21:09.944988-05:00,1000,2024-01-02T18:21:09.944988-05:00,5,2024-01-02T18:22:13.937478-05:00,15,2024-01-02T18:22:13.937478-05:00,2000,2024-01-02T18:22:13.937478-05:00,,,15,2024-01-02T18:21:33.559433-05:00,100,2024-01-02T18:21:33.559433-05:00,39,2024-01-02T18:22:13.937478-05:00,-610,2024-01-02T18:22:13.937478-05:00,15,2024-01-02T18:21:09.944988-05:00,low,2024-01-02T18:22:13.937478-05:00,1214,2024-01-02T18:21:09.944988-05:00,true,2024-01-02T18:21:09.944988-05:00,2000,2024-01-02T18:22:36.368897-05:00,6284,2024-01-02T18:21:09.944988-05:00,1000,2024-01-02T18:22:13.937478-05:00,7104,2024-01-02T18:22:45.862165-05:00,6284,2024-01-02T18:21:17.598221-05:00,6874,2024-01-02T18:21:58.456507-05:00,6264,2024-01-02T18:22:21.769888-05:00
